"","type","is_practice","click_values","payoff_matrix","cost_matrix","weights","weights_deviation","trial_num","selected_option","gross_earnings","net_earnings","click_cost","uncovered_values","num_values_revealed","nudge_type","num_baskets","num_features","reaction_time","points_click_cost","points_action_utility","points_metalevel_reward","problem_id","trial_type","trial_index","time_elapsed","participant_id"
"1","mouselab","True","[15, 5, 13, 7, 22, 23, 24, 21]","[[6, 4, 6, 4, 5], [4, 6, 5, 6, 4], [2, 6, 5, 6, 2], [1, 7, 7, 5, 3], [7, 3, 3, 7, 4]]","[[2, 2, 2, 2, 2], [2, 2, 2, 0, 2], [2, 0, 2, 2, 0], [2, 2, 2, 0, 0], [0, 2, 2, 2, 2]]","[4, 5, 1, 7, 13]",16,1,0,0.048,0.0453333333333333,0.00266666666666667,"[]",0,"random",5,5,48215,8,144,136,3229837419612500992,"attentional-mouselab",4,293912,0
"2","mouselab","True","[20, 6, 17, 24, 5, 7]","[[5, 5, 7, 8, 8], [4, 3, 5, 6, 6], [3, 1, 6, 4, 4], [5, 6, 8, 4, 6], [2, 8, 4, 5, 3]]","[[2, 2, 2, 2, 2], [2, 2, 2, 0, 0], [2, 2, 2, 2, 0], [2, 0, 2, 2, 0], [2, 0, 2, 2, 2]]","[3, 11, 8, 1, 7]",16,2,1,0.039,0.037,0.002,"[]",0,"random",5,5,26628,6,118,112,139118853272109728,"attentional-mouselab",5,324718,0
"3","mouselab","False","[22, 21, 20, 23, 9]","[[3, 2, 1, 4, 5], [2, 8, 8, 4, 5], [1, 4, 4, 9, 7], [6, 7, 5, 4, 4], [6, 3, 5, 4, 8]]","[[2, 2, 0, 2, 2], [2, 2, 0, 2, 2], [0, 2, 2, 0, 2], [2, 2, 2, 2, 0], [2, 2, 2, 2, 0]]","[4, 3, 8, 5, 10]",12,3,4,0.064,0.0623333333333333,0.00166666666666667,"[]",0,"extreme",5,5,13198,5,191,186,9191659770910776320,"attentional-mouselab",7,344136,0
"4","mouselab","False","[]","[[6, 5, 7, 2, 2], [1, 4, 5, 7, 5], [4, 3, 5, 4, 3], [5, 5, 5, 6, 6], [4, 4, 6, 5, 4]]","[[2, 2, 0, 0, 2], [2, 2, 0, 2, 2], [0, 2, 2, 2, 0], [2, 2, 2, 2, 2], [2, 2, 0, 2, 2]]","[10, 4, 4, 10, 2]",16,4,2,0.057,0.057,0,"[]",0,"greedy",5,5,5160,0,172,172,241088466219834464,"attentional-mouselab",8,351822,0
"5","mouselab","False","[16, 15, 17, 19, 18]","[[6, 3, 3, 2, 5], [5, 4, 8, 5, 5], [4, 5, 6, 3, 3], [6, 5, 5, 7, 6], [5, 6, 4, 6, 5]]","[[2, 2, 0, 0, 2], [2, 0, 0, 2, 2], [2, 0, 2, 0, 2], [2, 2, 2, 2, 2], [2, 2, 2, 2, 2]]","[5, 2, 1, 15, 7]",20,5,2,0.047,0.0453333333333333,0.00166666666666667,"[]",0,"extreme",5,5,23241,5,140,135,8253244738370435072,"attentional-mouselab",9,377188,0
"6","mouselab","False","[5, 5]","[[3, 6, 5, 5, 8], [4, 3, 3, 3, 3], [8, 4, 1, 4, 7], [7, 3, 6, 5, 3], [6, 2, 6, 6, 5]]","[[2, 0, 2, 2, 0], [2, 2, 0, 2, 2], [0, 2, 2, 0, 2], [0, 2, 2, 2, 2], [2, 2, 2, 2, 2]]","[4, 10, 7, 5, 4]",10,6,0,0.056,0.0553333333333333,0.000666666666666667,"[5]",1,"greedy",5,5,16177,2,167,165,5991279848637547520,"attentional-mouselab",10,395480,0
"7","mouselab","False","[8, 8, 5, 5]","[[6, 5, 5, 3, 7], [4, 5, 6, 2, 4], [9, 7, 4, 6, 5], [3, 7, 8, 3, 6], [7, 5, 5, 6, 8]]","[[0, 0, 2, 2, 2], [2, 0, 2, 2, 2], [2, 2, 2, 2, 2], [2, 2, 0, 2, 2], [0, 0, 2, 2, 2]]","[2, 11, 2, 5, 10]",18,7,0,0.053,0.0516666666666667,0.00133333333333333,"[8, 5]",2,"random",5,5,12862,4,159,155,1.4609580098536e+19,"attentional-mouselab",11,410436,0
"8","mouselab","False","[10, 10]","[[5, 5, 5, 6, 5], [6, 4, 7, 7, 7], [6, 2, 3, 5, 7], [4, 5, 5, 6, 6], [3, 6, 5, 5, 3]]","[[2, 2, 0, 0, 0], [2, 2, 2, 0, 2], [2, 0, 2, 2, 2], [2, 2, 2, 0, 2], [2, 2, 2, 2, 2]]","[6, 3, 16, 3, 2]",20,8,0,0.054,0.0533333333333333,0.000666666666666667,"[10]",1,"greedy",5,5,11226,2,162,160,12077403417366220800,"attentional-mouselab",12,423533,0
"9","mouselab","False","[13, 13]","[[3, 3, 7, 5, 6], [3, 3, 6, 7, 5], [3, 6, 4, 4, 5], [5, 6, 6, 7, 2], [8, 7, 8, 7, 5]]","[[2, 2, 0, 2, 2], [2, 2, 2, 0, 2], [0, 2, 2, 2, 0], [2, 2, 2, 0, 2], [2, 2, 0, 2, 2]]","[3, 7, 10, 7, 3]",12,9,3,0.058,0.0573333333333333,0.000666666666666667,"[13]",1,"greedy",5,5,6943,2,174,172,6717592688505549824,"attentional-mouselab",13,432549,0
"10","mouselab","False","[0, 0, 2, 2]","[[5, 5, 3, 6, 5], [5, 6, 4, 5, 6], [4, 6, 6, 7, 5], [5, 4, 5, 3, 5], [4, 6, 3, 3, 4]]","[[2, 2, 2, 0, 2], [2, 2, 2, 0, 2], [2, 2, 0, 0, 0], [2, 2, 2, 2, 2], [0, 2, 2, 2, 2]]","[10, 7, 4, 3, 6]",10,10,3,0.05,0.0486666666666667,0.00133333333333333,"[0, 2]",2,"random",5,5,14552,4,150,146,7254012641397054464,"attentional-mouselab",14,448658,0
"11","mouselab","False","[24, 24]","[[6, 3, 6, 4, 7], [4, 7, 2, 6, 6], [3, 8, 6, 4, 5], [3, 7, 4, 10, 6], [4, 6, 9, 9, 4]]","[[2, 2, 2, 2, 0], [0, 0, 2, 2, 0], [2, 2, 2, 2, 0], [2, 2, 2, 2, 2], [2, 2, 0, 2, 2]]","[5, 3, 5, 6, 11]",10,11,4,0.053,0.0523333333333333,0.000666666666666667,"[24]",1,"random",5,5,5940,2,158,156,9067944074115957760,"attentional-mouselab",15,456450,0
"12","mouselab","False","[21, 21]","[[7, 7, 4, 5, 4], [5, 5, 8, 7, 8], [5, 4, 5, 6, 2], [6, 6, 5, 5, 6], [6, 8, 8, 5, 6]]","[[2, 0, 2, 0, 2], [2, 2, 0, 2, 2], [0, 0, 2, 2, 2], [2, 2, 0, 2, 2], [2, 2, 2, 2, 2]]","[10, 2, 1, 2, 15]",26,12,1,0.072,0.0713333333333333,0.000666666666666667,"[21]",1,"random",5,5,8233,2,216,214,9457994541270157312,"attentional-mouselab",16,466871,0
"13","mouselab","False","[12, 12]","[[7, 1, 5, 5, 7], [6, 3, 5, 5, 5], [7, 7, 6, 2, 5], [6, 6, 9, 9, 5], [4, 7, 3, 7, 4]]","[[0, 2, 2, 2, 0], [0, 2, 2, 2, 2], [0, 2, 2, 2, 2], [0, 2, 2, 2, 2], [2, 2, 2, 0, 2]]","[3, 5, 18, 1, 3]",24,13,2,0.055,0.0543333333333333,0.000666666666666667,"[12]",1,"greedy",5,5,6645,2,166,164,15811426806426839040,"attentional-mouselab",17,475484,0
"14","mouselab","False","[21, 21, 24, 24]","[[6, 5, 4, 7, 8], [3, 8, 6, 4, 3], [5, 5, 3, 4, 7], [2, 5, 6, 6, 8], [5, 3, 4, 4, 0]]","[[2, 2, 2, 2, 0], [2, 0, 2, 2, 2], [0, 2, 2, 2, 0], [2, 2, 2, 0, 0], [2, 2, 2, 2, 2]]","[7, 6, 3, 5, 9]",8,14,1,0.05,0.0486666666666667,0.00133333333333333,"[21, 24]",2,"greedy",5,5,15353,4,150,146,16794282600629385216,"attentional-mouselab",18,493109,0
"15","mouselab","False","[0, 0, 5, 5]","[[6, 2, 6, 2, 4], [7, 6, 3, 6, 6], [4, 3, 2, 4, 4], [5, 3, 9, 5, 6], [7, 7, 3, 6, 8]]","[[2, 2, 2, 2, 2], [2, 2, 0, 0, 2], [2, 0, 0, 2, 2], [2, 2, 2, 2, 0], [2, 0, 2, 2, 2]]","[10, 6, 5, 4, 5]",8,15,0,0.059,0.0576666666666667,0.00133333333333333,"[0, 5]",2,"random",5,5,8896,4,177,173,16776300132985505792,"attentional-mouselab",19,503878,0
"16","mouselab","False","[5, 5, 7, 7, 13, 13]","[[2, 4, 7, 4, 5], [2, 6, 1, 6, 7], [6, 3, 5, 6, 5], [4, 7, 4, 3, 4], [5, 6, 6, 4, 5]]","[[2, 0, 2, 2, 2], [2, 2, 2, 0, 2], [2, 0, 2, 2, 0], [2, 2, 2, 2, 2], [2, 2, 0, 0, 2]]","[4, 13, 10, 2, 1]",22,16,3,0.055,0.053,0.002,"[5, 7, 13]",3,"random",5,5,11071,6,164,158,9012231791750736896,"attentional-mouselab",20,516823,0
"17","mouselab","False","[]","[[9, 8, 4, 5, 4], [7, 1, 3, 5, 5], [8, 4, 4, 6, 4], [3, 7, 4, 2, 3], [6, 6, 7, 3, 9]]","[[0, 2, 2, 2, 0], [2, 0, 2, 2, 2], [2, 0, 2, 2, 2], [2, 2, 2, 2, 2], [0, 2, 2, 2, 0]]","[15, 2, 2, 4, 7]",20,17,0,0.073,0.073,0,"[]",0,"extreme",5,5,3542,0,219,219,1.6512119593613e+19,"attentional-mouselab",21,522176,0
"18","mouselab","False","[]","[[6, 3, 2, 6, 3], [7, 7, 3, 6, 4], [1, 6, 6, 5, 8], [4, 8, 4, 3, 2], [6, 6, 6, 4, 4]]","[[2, 2, 2, 2, 0], [2, 2, 0, 2, 2], [0, 2, 2, 2, 0], [2, 2, 2, 0, 0], [2, 2, 2, 2, 2]]","[3, 6, 13, 7, 1]",16,18,4,0.052,0.052,0,"[]",0,"extreme",5,5,7402,0,155,155,2810359681803398144,"attentional-mouselab",22,531262,0
"19","mouselab","False","[24, 24]","[[8, 6, 4, 4, 5], [5, 4, 5, 7, 3], [5, 5, 4, 3, 7], [5, 6, 6, 6, 9], [4, 3, 5, 7, 6]]","[[2, 2, 2, 2, 0], [2, 2, 2, 2, 0], [2, 2, 2, 0, 0], [2, 2, 2, 2, 0], [2, 2, 2, 0, 2]]","[6, 4, 9, 3, 8]",10,19,4,0.06,0.0593333333333333,0.000666666666666667,"[24]",1,"greedy",5,5,12824,2,180,178,8060173892147906560,"attentional-mouselab",23,545981,0
"20","mouselab","False","[6, 6, 21, 21, 5, 5, 9, 9, 8, 8]","[[3, 6, 5, 6, 5], [4, 6, 3, 5, 5], [5, 5, 2, 3, 5], [7, 5, 7, 5, 5], [6, 4, 5, 6, 5]]","[[0, 2, 0, 2, 2], [2, 2, 2, 2, 2], [2, 0, 0, 0, 2], [2, 0, 2, 2, 2], [2, 2, 2, 2, 2]]","[2, 16, 3, 2, 7]",22,20,1,0.054,0.0506666666666667,0.00333333333333333,"[6, 21, 5, 9, 8]",5,"extreme",5,5,19651,10,161,151,174479116310925024,"attentional-mouselab",24,567125,0
"21","mouselab","False","[16, 16]","[[5, 6, 2, 4, 3], [5, 6, 5, 6, 3], [7, 3, 4, 4, 3], [7, 3, 5, 6, 5], [4, 6, 4, 5, 5]]","[[2, 2, 2, 0, 2], [2, 2, 0, 2, 2], [2, 2, 2, 2, 0], [2, 2, 2, 0, 0], [0, 2, 2, 2, 2]]","[5, 3, 2, 12, 8]",16,21,3,0.053,0.0523333333333333,0.000666666666666667,"[16]",1,"random",5,5,7960,2,158,156,8542130017440407552,"attentional-mouselab",25,576758,0
"22","mouselab","False","[]","[[3, 4, 4, 6, 6], [4, 9, 4, 1, 8], [3, 5, 4, 2, 5], [5, 4, 4, 6, 6], [6, 8, 2, 2, 5]]","[[2, 2, 2, 2, 2], [0, 0, 2, 0, 2], [2, 2, 2, 2, 2], [2, 2, 2, 2, 2], [2, 0, 0, 2, 0]]","[1, 10, 3, 1, 15]",26,22,1,0.078,0.078,0,"[]",0,"extreme",5,5,2491,0,233,233,9119517580776991744,"attentional-mouselab",26,581217,0
"23","mouselab","False","[3, 3]","[[4, 6, 5, 8, 2], [5, 5, 7, 8, 5], [3, 6, 5, 5, 7], [9, 4, 2, 4, 5], [4, 4, 3, 3, 6]]","[[0, 2, 2, 2, 0], [0, 2, 2, 2, 2], [2, 2, 2, 0, 2], [0, 2, 0, 2, 2], [2, 2, 2, 2, 2]]","[15, 6, 2, 3, 4]",18,23,3,0.067,0.0663333333333333,0.000666666666666667,"[3]",1,"extreme",5,5,5910,2,202,200,1.6433368985985e+19,"attentional-mouselab",27,588704,0
"24","mouselab","False","[1, 1]","[[6, 5, 5, 0, 7], [5, 8, 4, 4, 8], [5, 4, 3, 5, 4], [6, 4, 2, 6, 5], [6, 8, 6, 4, 7]]","[[2, 2, 2, 0, 0], [0, 0, 2, 0, 2], [2, 2, 2, 2, 2], [2, 2, 2, 2, 2], [2, 2, 2, 0, 2]]","[11, 6, 8, 2, 3]",14,24,4,0.063,0.0623333333333333,0.000666666666666667,"[1]",1,"random",5,5,9453,2,188,186,12605705373982920704,"attentional-mouselab",28,599556,0
"25","mouselab","False","[22, 22, 24, 24, 20, 20]","[[6, 3, 7, 7, 8], [5, 6, 5, 3, 1], [4, 5, 9, 6, 6], [7, 4, 6, 6, 4], [5, 8, 5, 9, 2]]","[[2, 0, 2, 2, 0], [2, 2, 2, 2, 2], [0, 2, 2, 2, 2], [0, 0, 2, 2, 2], [2, 2, 2, 0, 2]]","[1, 3, 8, 4, 14]",20,25,0,0.05,0.048,0.002,"[22, 24, 20]",3,"random",5,5,8569,6,151,145,1.1303365877844e+19,"attentional-mouselab",29,609778,0
"26","mouselab","False","[]","[[2, 3, 4, 3, 7], [6, 8, 7, 4, 8], [4, 6, 6, 2, 5], [5, 3, 5, 6, 2], [6, 4, 6, 3, 5]]","[[2, 0, 2, 2, 2], [2, 0, 2, 2, 2], [2, 2, 2, 2, 2], [0, 2, 2, 0, 2], [2, 2, 2, 0, 0]]","[5, 10, 8, 6, 1]",12,26,1,0.055,0.055,0,"[]",0,"random",5,5,2880,0,165,165,22701537284638200,"attentional-mouselab",30,614406,0
"27","mouselab","False","[8, 8]","[[4, 8, 4, 7, 4], [4, 6, 5, 6, 1], [5, 4, 6, 7, 4], [1, 4, 5, 5, 4], [7, 5, 6, 7, 5]]","[[2, 2, 2, 0, 0], [2, 0, 2, 2, 2], [2, 2, 2, 0, 0], [2, 2, 2, 2, 2], [2, 2, 2, 0, 2]]","[7, 8, 9, 5, 1]",12,27,3,0.064,0.0633333333333333,0.000666666666666667,"[8]",1,"greedy",5,5,9687,2,192,190,6113316838123599872,"attentional-mouselab",31,625491,0
"28","mouselab","False","[20, 20, 23, 23, 24, 24]","[[5, 3, 7, 3, 5], [6, 5, 5, 6, 7], [5, 4, 3, 3, 8], [5, 3, 6, 6, 8], [4, 3, 5, 4, 4]]","[[2, 2, 2, 0, 2], [2, 2, 2, 2, 0], [2, 0, 2, 2, 0], [2, 2, 2, 2, 0], [2, 0, 2, 2, 2]]","[4, 1, 11, 1, 13]",24,28,4,0.058,0.056,0.002,"[20, 23, 24]",3,"greedy",5,5,10067,6,175,169,2981354973238445056,"attentional-mouselab",32,637009,0
"29","mouselab","False","[0, 0]","[[7, 5, 2, 3, 6], [4, 4, 2, 5, 8], [6, 4, 4, 7, 1], [6, 6, 7, 3, 2], [6, 5, 5, 5, 3]]","[[2, 2, 0, 2, 2], [2, 2, 0, 2, 2], [2, 2, 0, 2, 0], [2, 2, 2, 2, 0], [2, 0, 2, 2, 2]]","[17, 3, 2, 2, 6]",22,29,0,0.064,0.0633333333333333,0.000666666666666667,"[0]",1,"extreme",5,5,5889,2,191,189,18119771025229551616,"attentional-mouselab",33,644697,0
"30","mouselab","False","[15, 15]","[[6, 7, 5, 10, 5], [3, 6, 5, 5, 9], [8, 3, 5, 5, 4], [6, 7, 5, 3, 1], [7, 6, 5, 6, 4]]","[[2, 2, 2, 0, 2], [2, 2, 2, 2, 0], [0, 2, 0, 2, 2], [2, 2, 2, 2, 0], [2, 2, 2, 0, 2]]","[4, 1, 2, 22, 1]",32,30,0,0.061,0.0603333333333333,0.000666666666666667,"[15]",1,"extreme",5,5,5698,2,182,180,1128588237226646784,"attentional-mouselab",34,652099,0
"31","mouselab","False","[5, 5]","[[4, 6, 2, 8, 5], [5, 6, 6, 6, 8], [6, 7, 8, 3, 0], [7, 6, 6, 7, 7], [3, 6, 5, 3, 6]]","[[2, 0, 0, 0, 2], [2, 2, 2, 2, 2], [0, 2, 2, 2, 0], [2, 2, 0, 2, 2], [2, 2, 2, 2, 2]]","[2, 8, 13, 3, 4]",18,31,0,0.053,0.0523333333333333,0.000666666666666667,"[5]",1,"extreme",5,5,8180,2,159,157,9517422732880695296,"attentional-mouselab",35,661964,0
"32","mouselab","False","[]","[[4, 3, 6, 6, 4], [8, 7, 4, 5, 3], [5, 1, 6, 4, 7], [6, 5, 4, 3, 6], [3, 8, 6, 6, 6]]","[[2, 2, 2, 2, 2], [0, 2, 2, 2, 0], [2, 2, 2, 2, 0], [2, 2, 0, 0, 2], [2, 2, 2, 0, 2]]","[1, 2, 4, 5, 18]",24,32,3,0.052,0.052,0,"[]",0,"greedy",5,5,4331,0,155,155,5992678152867065856,"attentional-mouselab",36,667726,0
"33","mouselab","True","[13, 13, 8, 8]","[[5, 4, 2, 3, 9], [3, 7, 7, 7, 4], [6, 1, 4, 1, 6], [3, 3, 4, 9, 3], [6, 4, 10, 4, 5]]","[[2, 2, 2, 0, 0], [2, 0, 2, 2, 0], [2, 2, 2, 2, 2], [2, 2, 2, 0, 2], [2, 2, 2, 0, 2]]","[6, 13, 1, 7, 3]",16,1,3,0.062,0.0606666666666667,0.00133333333333333,"[13, 8]",2,"random",5,5,15704,4,185,181,9756388240355188736,"attentional-mouselab",4,123582,1
"34","mouselab","True","[5, 5, 20, 20, 2, 2, 18, 18]","[[4, 4, 3, 8, 1], [6, 5, 5, 7, 3], [6, 1, 2, 3, 4], [6, 4, 7, 8, 6], [4, 5, 5, 6, 7]]","[[0, 2, 2, 2, 2], [2, 2, 0, 2, 2], [0, 0, 2, 0, 2], [0, 2, 2, 2, 2], [2, 2, 2, 2, 2]]","[2, 10, 8, 5, 5]",12,2,3,0.06,0.0573333333333333,0.00266666666666667,"[5, 20, 2, 18]",4,"random",5,5,15703,8,180,172,15124496326205227008,"attentional-mouselab",5,142853,1
"35","mouselab","False","[12, 12]","[[6, 5, 8, 4, 6], [5, 5, 7, 6, 4], [6, 6, 6, 4, 9], [2, 2, 6, 4, 7], [7, 5, 5, 6, 4]]","[[2, 2, 0, 2, 2], [2, 2, 0, 2, 2], [2, 2, 2, 2, 0], [2, 0, 0, 2, 2], [0, 2, 2, 2, 2]]","[6, 5, 6, 7, 6]",2,3,2,0.064,0.0633333333333333,0.000666666666666667,"[12]",1,"greedy",5,5,5150,2,191,189,1755953932508255488,"attentional-mouselab",7,152831,1
"36","mouselab","False","[14, 14, 24, 24, 10, 10, 12, 12]","[[1, 5, 5, 4, 2], [5, 1, 5, 5, 8], [3, 3, 7, 6, 6], [3, 5, 7, 5, 7], [4, 4, 1, 2, 4]]","[[0, 2, 0, 2, 2], [2, 0, 2, 2, 0], [2, 2, 2, 2, 2], [2, 2, 2, 2, 2], [2, 2, 0, 0, 2]]","[9, 5, 1, 9, 6]",12,4,4,0.05,0.0473333333333333,0.00266666666666667,"[14, 24, 10, 12]",4,"extreme",5,5,16604,8,151,143,1.3978845886108e+19,"attentional-mouselab",8,171270,1
"37","mouselab","False","[12, 12]","[[9, 1, 8, 3, 5], [5, 7, 4, 7, 5], [4, 6, 6, 5, 7], [5, 6, 7, 5, 5], [6, 8, 7, 2, 4]]","[[2, 0, 0, 2, 2], [2, 2, 0, 2, 2], [2, 0, 2, 2, 2], [2, 2, 2, 2, 2], [2, 2, 0, 0, 2]]","[5, 2, 14, 8, 1]",20,5,2,0.065,0.0643333333333333,0.000666666666666667,"[12]",1,"random",5,5,5544,2,195,193,10728131733677604864,"attentional-mouselab",9,178492,1
"38","mouselab","False","[19, 19, 6, 6, 17, 17]","[[7, 7, 4, 5, 4], [5, 5, 8, 7, 8], [5, 4, 5, 6, 2], [6, 6, 5, 5, 6], [6, 8, 8, 5, 6]]","[[2, 0, 2, 2, 2], [2, 2, 2, 2, 0], [0, 0, 2, 2, 0], [2, 2, 2, 2, 2], [2, 2, 0, 2, 2]]","[7, 8, 1, 13, 1]",20,6,4,0.059,0.057,0.002,"[19, 6, 17]",3,"extreme",5,5,7862,6,178,172,9457994541270157312,"attentional-mouselab",10,189821,1
"39","mouselab","False","[5, 5, 8, 8, 2, 2, 6, 6]","[[6, 2, 5, 8, 4], [3, 5, 5, 4, 7], [5, 4, 4, 7, 4], [7, 7, 5, 5, 2], [7, 5, 5, 4, 6]]","[[2, 2, 2, 0, 0], [2, 2, 2, 2, 0], [2, 2, 2, 2, 2], [0, 2, 2, 2, 2], [0, 2, 0, 2, 2]]","[3, 18, 3, 5, 1]",24,7,3,0.049,0.0463333333333333,0.00266666666666667,"[5, 8, 2, 6]",4,"greedy",5,5,12689,8,146,138,5996841966507962368,"attentional-mouselab",11,204276,1
"40","mouselab","False","[]","[[7, 5, 4, 5, 6], [2, 4, 3, 7, 6], [8, 6, 5, 6, 7], [5, 7, 5, 7, 5], [7, 6, 6, 3, 4]]","[[0, 2, 2, 2, 2], [2, 0, 2, 0, 2], [0, 2, 2, 2, 2], [2, 2, 2, 2, 2], [0, 2, 2, 2, 0]]","[3, 7, 4, 15, 1]",20,8,0,0.05,0.05,0,"[]",0,"greedy",5,5,2418,0,149,149,1.2142532938358e+19,"attentional-mouselab",12,208146,1
"41","mouselab","False","[]","[[5, 5, 7, 6, 3], [8, 5, 3, 6, 2], [4, 2, 8, 3, 6], [5, 5, 7, 5, 2], [5, 6, 5, 7, 4]]","[[2, 2, 0, 2, 0], [2, 2, 2, 2, 2], [0, 0, 0, 2, 2], [2, 2, 2, 2, 0], [2, 2, 2, 2, 2]]","[12, 6, 7, 2, 3]",14,9,2,0.062,0.062,0,"[]",0,"extreme",5,5,2924,0,187,187,5436091006106421248,"attentional-mouselab",13,212455,1
"42","mouselab","False","[2, 2, 22, 22, 10, 10, 3, 3, 19, 19, 13, 13]","[[3, 2, 5, 3, 6], [4, 1, 8, 4, 4], [4, 6, 4, 4, 4], [7, 5, 7, 3, 5], [4, 4, 5, 7, 6]]","[[0, 0, 2, 2, 2], [2, 2, 0, 2, 2], [2, 2, 0, 2, 2], [2, 0, 0, 2, 2], [2, 2, 2, 2, 2]]","[1, 10, 1, 5, 13]",22,10,2,0.063,0.059,0.004,"[2, 22, 10, 3, 19, 13]",6,"greedy",5,5,14173,12,189,177,10679498637987278848,"attentional-mouselab",14,228317,1
"43","mouselab","False","[5, 5, 24, 24, 20, 20, 3, 3, 6, 6]","[[6, 5, 4, 3, 6], [4, 3, 6, 5, 1], [4, 5, 4, 7, 7], [7, 3, 7, 5, 6], [5, 4, 7, 5, 4]]","[[2, 2, 0, 2, 2], [2, 2, 0, 2, 0], [2, 2, 2, 2, 0], [2, 2, 0, 2, 2], [2, 2, 0, 2, 2]]","[3, 5, 16, 3, 3]",20,11,2,0.049,0.0456666666666667,0.00333333333333333,"[5, 24, 20, 3, 6]",5,"greedy",5,5,19304,10,148,138,6945154613781810176,"attentional-mouselab",15,249096,1
"44","mouselab","False","[9, 9, 22, 22]","[[7, 5, 7, 3, 4], [3, 4, 6, 7, 5], [7, 5, 6, 3, 6], [5, 2, 2, 6, 3], [3, 6, 6, 4, 7]]","[[2, 2, 0, 2, 2], [0, 0, 0, 2, 2], [0, 2, 2, 2, 2], [2, 2, 2, 2, 2], [2, 2, 2, 0, 2]]","[4, 6, 8, 4, 8]",8,12,2,0.056,0.0546666666666667,0.00133333333333333,"[9, 22]",2,"greedy",5,5,5196,4,168,164,5448344544979615744,"attentional-mouselab",16,255530,1
"45","mouselab","False","[5, 5, 1, 1, 24, 24, 9, 9]","[[3, 7, 8, 3, 5], [7, 4, 3, 4, 7], [7, 5, 6, 4, 8], [4, 6, 4, 3, 5], [8, 3, 7, 6, 8]]","[[2, 2, 2, 2, 2], [2, 2, 0, 0, 2], [2, 2, 0, 0, 2], [2, 2, 2, 2, 2], [2, 2, 0, 0, 2]]","[3, 4, 12, 9, 2]",18,13,4,0.067,0.0643333333333333,0.00266666666666667,"[5, 1, 24, 9]",4,"random",5,5,7975,8,200,192,9672768658614673408,"attentional-mouselab",17,267882,1
"46","mouselab","False","[22, 22, 2, 2, 8, 8, 18, 18, 9, 9, 5, 5]","[[4, 6, 4, 7, 7], [4, 3, 9, 5, 4], [6, 6, 2, 5, 3], [3, 5, 5, 2, 2], [6, 6, 4, 6, 7]]","[[2, 2, 2, 0, 2], [2, 0, 0, 2, 2], [2, 2, 0, 2, 2], [0, 2, 2, 2, 2], [2, 2, 2, 0, 2]]","[11, 7, 8, 1, 3]",16,14,3,0.057,0.053,0.004,"[22, 2, 8, 18, 9, 5]",6,"greedy",5,5,9145,12,172,160,2962010817410924032,"attentional-mouselab",18,277985,1
"47","mouselab","False","[]","[[7, 4, 5, 3, 4], [5, 3, 4, 7, 3], [7, 5, 2, 3, 4], [6, 1, 5, 6, 8], [6, 7, 6, 4, 5]]","[[0, 0, 2, 2, 0], [2, 2, 2, 2, 2], [0, 2, 2, 2, 2], [2, 2, 0, 2, 2], [0, 2, 2, 2, 2]]","[1, 21, 3, 4, 1]",30,15,0,0.054,0.054,0,"[]",0,"greedy",5,5,2023,0,163,163,9961488159007821824,"attentional-mouselab",19,281247,1
"48","mouselab","False","[]","[[10, 6, 2, 6, 4], [5, 6, 4, 5, 4], [6, 6, 4, 6, 8], [5, 7, 5, 3, 5], [4, 4, 3, 6, 5]]","[[2, 2, 0, 2, 2], [2, 2, 2, 0, 2], [2, 2, 2, 2, 0], [2, 2, 2, 0, 2], [2, 2, 0, 2, 0]]","[3, 12, 6, 6, 3]",12,16,4,0.051,0.051,0,"[]",0,"random",5,5,2260,0,153,153,5042804856389504000,"attentional-mouselab",20,284746,1
"49","mouselab","False","[11, 11, 4, 4, 2, 2, 13, 13, 20, 20]","[[7, 5, 5, 7, 4], [1, 6, 3, 2, 6], [6, 3, 6, 5, 4], [8, 6, 4, 7, 5], [1, 8, 7, 5, 4]]","[[2, 0, 2, 2, 2], [0, 0, 2, 2, 2], [2, 2, 2, 2, 0], [2, 2, 2, 2, 2], [2, 0, 2, 0, 2]]","[9, 1, 11, 5, 4]",16,17,1,0.049,0.0456666666666667,0.00333333333333333,"[11, 4, 2, 13, 20]",5,"greedy",5,5,9066,10,146,136,13963410223792076800,"attentional-mouselab",21,295028,1
"50","mouselab","False","[5, 5, 2, 2, 24, 24, 20, 20]","[[3, 4, 5, 4, 2], [4, 5, 5, 2, 3], [8, 7, 7, 2, 5], [6, 5, 1, 7, 6], [7, 5, 5, 6, 7]]","[[2, 2, 2, 2, 0], [2, 2, 2, 0, 2], [2, 0, 2, 0, 2], [2, 0, 0, 2, 2], [2, 2, 2, 2, 2]]","[2, 6, 4, 16, 2]",20,18,1,0.052,0.0493333333333333,0.00266666666666667,"[5, 2, 24, 20]",4,"extreme",5,5,13892,8,156,148,6765981897810233344,"attentional-mouselab",22,322095,1
"51","mouselab","False","[10, 10]","[[6, 7, 5, 8, 5], [7, 4, 5, 7, 6], [6, 7, 6, 6, 5], [7, 6, 7, 7, 3], [8, 2, 1, 4, 7]]","[[2, 2, 2, 2, 2], [2, 2, 2, 0, 2], [2, 2, 0, 0, 2], [2, 2, 2, 2, 2], [0, 0, 0, 2, 2]]","[2, 3, 12, 12, 1]",24,19,0,0.066,0.0653333333333333,0.000666666666666667,"[10]",1,"extreme",5,5,3633,2,197,195,15999323256805083136,"attentional-mouselab",23,326842,1
"52","mouselab","False","[5, 5, 4, 4]","[[1, 7, 4, 5, 6], [6, 7, 8, 3, 6], [6, 3, 3, 2, 1], [7, 3, 4, 7, 4], [6, 4, 2, 6, 4]]","[[2, 2, 2, 2, 2], [2, 2, 2, 0, 2], [2, 0, 0, 2, 0], [2, 2, 2, 2, 2], [0, 2, 2, 0, 2]]","[12, 4, 2, 4, 8]",16,20,0,0.041,0.0396666666666667,0.00133333333333333,"[5, 4]",2,"random",5,5,13117,4,124,120,8393671641609005056,"attentional-mouselab",24,341219,1
"53","mouselab","False","[9, 9, 11, 11]","[[6, 6, 4, 5, 7], [3, 5, 4, 7, 8], [5, 6, 7, 8, 3], [4, 7, 3, 2, 5], [5, 0, 7, 7, 6]]","[[2, 0, 2, 0, 2], [0, 2, 2, 2, 2], [2, 2, 2, 2, 2], [0, 2, 2, 0, 2], [2, 2, 2, 2, 0]]","[2, 1, 2, 1, 24]",36,21,4,0.059,0.0576666666666667,0.00133333333333333,"[9, 11]",2,"random",5,5,6030,4,177,173,16861388886506741760,"attentional-mouselab",25,348330,1
"54","mouselab","False","[8, 8]","[[5, 9, 4, 6, 6], [5, 7, 7, 7, 2], [4, 4, 4, 2, 7], [7, 5, 6, 5, 6], [5, 6, 4, 10, 6]]","[[2, 2, 2, 2, 0], [2, 2, 2, 2, 0], [2, 2, 2, 2, 2], [0, 2, 0, 2, 2], [2, 2, 2, 0, 0]]","[6, 17, 1, 3, 3]",22,22,3,0.067,0.0663333333333333,0.000666666666666667,"[8]",1,"random",5,5,3497,2,202,200,15851253189176524800,"attentional-mouselab",26,353155,1
"55","mouselab","False","[]","[[5, 6, 4, 5, 5], [5, 2, 6, 7, 4], [8, 3, 5, 4, 5], [9, 3, 5, 4, 3], [2, 3, 7, 5, 6]]","[[2, 2, 2, 2, 0], [2, 2, 2, 2, 2], [0, 2, 2, 0, 2], [0, 2, 2, 2, 2], [2, 0, 0, 2, 2]]","[5, 8, 1, 10, 6]",12,23,0,0.058,0.058,0,"[]",0,"greedy",5,5,2575,0,175,175,2920895333923370496,"attentional-mouselab",27,356935,1
"56","mouselab","False","[3, 3]","[[6, 7, 6, 6, 4], [6, 7, 7, 8, 4], [7, 6, 3, 5, 2], [3, 4, 4, 5, 7], [7, 4, 4, 7, 4]]","[[2, 0, 2, 2, 2], [2, 2, 2, 0, 2], [2, 2, 2, 0, 2], [2, 0, 0, 2, 2], [2, 2, 2, 2, 0]]","[9, 2, 10, 6, 3]",14,24,3,0.057,0.0563333333333333,0.000666666666666667,"[3]",1,"random",5,5,3610,2,171,169,816192679593321344,"attentional-mouselab",28,361931,1
"57","mouselab","False","[]","[[5, 3, 4, 6, 6], [3, 8, 4, 5, 5], [4, 7, 5, 7, 7], [5, 4, 5, 4, 9], [5, 7, 6, 6, 5]]","[[2, 2, 2, 2, 2], [2, 2, 2, 2, 2], [2, 2, 2, 0, 2], [2, 2, 0, 2, 0], [2, 0, 2, 0, 0]]","[10, 8, 1, 6, 5]",12,25,4,0.062,0.062,0,"[]",0,"random",5,5,3002,0,186,186,14871878884829849600,"attentional-mouselab",29,368950,1
"58","mouselab","False","[19, 19, 15, 15, 18, 18]","[[3, 6, 7, 5, 7], [6, 2, 6, 4, 7], [3, 4, 8, 7, 7], [6, 4, 4, 4, 5], [8, 7, 6, 4, 3]]","[[0, 2, 2, 2, 0], [2, 0, 2, 2, 2], [0, 2, 2, 2, 2], [2, 2, 0, 2, 2], [2, 2, 2, 0, 2]]","[2, 4, 2, 15, 7]",20,26,0,0.061,0.059,0.002,"[19, 15, 18]",3,"random",5,5,10439,6,182,176,17072134696865310720,"attentional-mouselab",30,381449,1
"59","mouselab","False","[16, 16]","[[6, 9, 3, 7, 7], [3, 3, 6, 3, 2], [4, 5, 2, 5, 7], [6, 5, 3, 8, 4], [5, 6, 1, 5, 1]]","[[0, 0, 2, 2, 2], [2, 2, 2, 2, 2], [2, 0, 2, 2, 2], [2, 2, 2, 2, 2], [0, 2, 0, 2, 0]]","[3, 6, 1, 2, 18]",24,27,1,0.056,0.0553333333333333,0.000666666666666667,"[16]",1,"extreme",5,5,4082,2,168,166,644341334866141312,"attentional-mouselab",31,386713,1
"60","mouselab","False","[9, 9, 0, 0, 15, 15, 20, 20, 22, 22, 23, 23]","[[4, 2, 6, 6, 7], [2, 5, 7, 2, 4], [7, 6, 3, 4, 5], [5, 4, 5, 6, 5], [5, 6, 3, 1, 5]]","[[2, 2, 2, 2, 2], [2, 0, 0, 0, 2], [2, 2, 0, 2, 2], [2, 2, 2, 2, 2], [2, 0, 2, 2, 0]]","[7, 8, 2, 3, 10]",14,28,0,0.041,0.037,0.004,"[9, 0, 15, 20, 22, 23]",6,"random",5,5,11002,12,123,111,9363821507101460480,"attentional-mouselab",32,398908,1
"61","mouselab","False","[7, 7, 23, 23, 2, 2]","[[6, 4, 8, 5, 5], [6, 4, 7, 6, 8], [2, 4, 8, 10, 3], [4, 8, 4, 5, 4], [7, 4, 10, 4, 5]]","[[2, 2, 2, 2, 2], [2, 2, 2, 0, 2], [0, 0, 2, 0, 2], [0, 2, 2, 2, 2], [2, 2, 0, 2, 2]]","[13, 7, 3, 5, 2]",16,29,2,0.072,0.07,0.002,"[7, 23, 2]",3,"extreme",5,5,7829,6,217,211,207092071864995808,"attentional-mouselab",33,407774,1
"62","mouselab","False","[15, 15]","[[6, 5, 7, 4, 6], [3, 6, 4, 3, 7], [10, 3, 5, 3, 5], [6, 5, 6, 4, 6], [3, 3, 4, 7, 7]]","[[2, 2, 2, 2, 2], [2, 0, 2, 2, 2], [0, 2, 0, 2, 2], [2, 2, 2, 2, 0], [0, 2, 2, 0, 2]]","[4, 3, 4, 18, 1]",24,30,0,0.061,0.0603333333333333,0.000666666666666667,"[15]",1,"extreme",5,5,4217,2,184,182,468514461533905280,"attentional-mouselab",34,413297,1
"63","mouselab","False","[8, 8, 3, 3]","[[4, 3, 5, 4, 6], [1, 7, 5, 7, 4], [5, 3, 4, 2, 6], [7, 7, 5, 10, 5], [1, 8, 6, 3, 2]]","[[2, 2, 2, 2, 2], [0, 0, 2, 2, 2], [2, 0, 2, 2, 2], [2, 2, 2, 0, 2], [0, 2, 2, 0, 2]]","[14, 2, 2, 4, 8]",20,31,3,0.046,0.0446666666666667,0.00133333333333333,"[8, 3]",2,"extreme",5,5,4948,4,138,134,6992723621063904256,"attentional-mouselab",35,419416,1
"64","mouselab","False","[0, 0, 10, 10, 3, 3]","[[3, 4, 7, 7, 5], [6, 5, 5, 4, 5], [3, 3, 5, 4, 7], [7, 3, 5, 6, 8], [5, 7, 5, 7, 1]]","[[2, 2, 2, 2, 2], [2, 2, 2, 2, 2], [2, 0, 0, 2, 0], [2, 2, 2, 2, 0], [2, 0, 2, 2, 0]]","[10, 1, 10, 4, 5]",16,32,4,0.054,0.052,0.002,"[0, 10, 3]",3,"extreme",5,5,8335,6,162,156,4983591930418866176,"attentional-mouselab",36,429439,1
"65","mouselab","True","[0, 0, 7, 7, 2, 2, 5, 5, 15, 15, 20, 20, 3, 3, 13, 13, 23, 23, 6, 6, 9, 9, 1, 11, 11, 1, 4, 4, 14, 14, 19, 19, 24, 24, 16, 16, 21, 21, 11, 6]","[[8, 5, 6, 7, 6], [4, 6, 5, 10, 5], [6, 3, 7, 4, 4], [5, 6, 6, 7, 6], [4, 5, 4, 7, 7]]","[[2, 2, 2, 2, 2], [2, 2, 2, 0, 2], [0, 2, 0, 2, 2], [2, 2, 0, 0, 2], [2, 2, 0, 2, 2]]","[6, 2, 9, 7, 6]",8,1,3,0.063,0.0503333333333333,0.0126666666666667,"[0, 7, 2, 5, 15, 20, 3, 13, 23, 6, 9, 11, 1, 4, 14, 19, 24, 16, 21]",19,"random",5,5,63703,38,189,151,1.7772731312831e+19,"attentional-mouselab",4,180791,2
"66","mouselab","True","[0, 5, 10, 15, 20]","[[4, 3, 2, 6, 4], [6, 7, 6, 4, 6], [7, 5, 3, 5, 3], [5, 7, 4, 2, 5], [6, 6, 0, 6, 3]]","[[2, 0, 2, 0, 0], [2, 2, 2, 2, 0], [2, 2, 2, 2, 2], [2, 2, 2, 2, 2], [2, 2, 0, 2, 0]]","[3, 6, 5, 2, 14]",16,2,0,0.059,0.0573333333333333,0.00166666666666667,"[]",0,"random",5,5,8929,5,177,172,5173913428407715840,"attentional-mouselab",5,196176,2
"67","mouselab","False","[3, 3, 13, 13]","[[6, 4, 3, 3, 2], [4, 1, 5, 6, 2], [3, 5, 4, 6, 3], [4, 3, 5, 2, 4], [6, 5, 7, 8, 0]]","[[2, 2, 2, 2, 2], [0, 0, 2, 2, 2], [2, 2, 2, 2, 2], [2, 2, 0, 2, 0], [2, 2, 2, 0, 0]]","[5, 6, 2, 4, 13]",14,3,3,0.058,0.0566666666666667,0.00133333333333333,"[3, 13]",2,"extreme",5,5,8953,4,175,171,9723784717019637760,"attentional-mouselab",7,211263,2
"68","mouselab","False","[0, 15, 20]","[[4, 3, 6, 5, 6], [8, 4, 2, 6, 4], [6, 7, 7, 3, 6], [2, 4, 5, 4, 5], [5, 3, 3, 5, 4]]","[[2, 0, 2, 2, 2], [0, 2, 2, 2, 2], [0, 0, 2, 0, 2], [2, 2, 2, 2, 2], [2, 2, 0, 2, 2]]","[10, 10, 4, 3, 3]",16,4,0,0.055,0.054,0.001,"[]",0,"greedy",5,5,3674,3,165,162,16698081840508139520,"attentional-mouselab",8,218645,2
"69","mouselab","False","[13, 13, 8, 8, 7, 7, 17, 17]","[[4, 6, 5, 4, 1], [8, 5, 6, 4, 6], [4, 4, 2, 6, 6], [4, 9, 6, 3, 4], [6, 4, 4, 3, 6]]","[[2, 2, 2, 2, 0], [0, 2, 2, 2, 2], [2, 2, 2, 2, 0], [2, 0, 2, 2, 2], [2, 0, 0, 2, 2]]","[1, 14, 4, 10, 1]",24,5,2,0.054,0.0513333333333333,0.00266666666666667,"[13, 8, 7, 17]",4,"extreme",5,5,12896,8,161,153,5980583859709008896,"attentional-mouselab",9,232892,2
"70","mouselab","False","[]","[[5, 5, 5, 5, 4], [8, 5, 7, 8, 7], [4, 2, 4, 0, 8], [6, 5, 4, 2, 4], [5, 6, 6, 5, 4]]","[[2, 2, 0, 2, 2], [0, 2, 2, 2, 0], [2, 2, 2, 2, 0], [0, 2, 2, 2, 0], [2, 2, 2, 2, 2]]","[1, 2, 9, 14, 4]",22,6,2,0.045,0.045,0,"[]",0,"greedy",5,5,5255,0,135,135,15699723120755689472,"attentional-mouselab",10,239770,2
"71","mouselab","False","[12, 12, 11, 11, 18, 18, 14, 14, 4, 4, 19, 19, 24, 24, 5, 5]","[[5, 5, 4, 7, 7], [7, 5, 9, 4, 9], [4, 3, 4, 5, 3], [2, 6, 5, 7, 7], [4, 8, 3, 7, 4]]","[[0, 2, 2, 2, 2], [2, 0, 0, 2, 0], [2, 2, 2, 2, 2], [0, 0, 2, 2, 2], [2, 2, 2, 2, 2]]","[3, 10, 5, 9, 3]",14,7,1,0.053,0.0476666666666667,0.00533333333333333,"[12, 11, 18, 14, 4, 19, 24, 5]",8,"extreme",5,5,31072,16,158,142,9206490961615036416,"attentional-mouselab",11,272403,2
"72","mouselab","False","[0, 0, 20, 20, 15, 15, 5, 5, 12, 17]","[[6, 3, 5, 7, 4], [4, 5, 6, 4, 7], [4, 0, 6, 4, 6], [7, 4, 5, 3, 3], [6, 7, 6, 2, 3]]","[[2, 2, 2, 0, 2], [2, 2, 0, 0, 0], [2, 0, 2, 2, 2], [2, 2, 2, 2, 2], [2, 2, 2, 0, 2]]","[6, 6, 1, 5, 12]",12,8,2,0.056,0.0526666666666667,0.00333333333333333,"[0, 20, 15, 5]",4,"extreme",5,5,27128,10,169,159,2769944879214106624,"attentional-mouselab",12,301019,2
"73","mouselab","False","[9, 4, 4, 9, 24, 24, 20, 20]","[[5, 6, 7, 7, 4], [6, 8, 3, 5, 3], [3, 6, 5, 5, 10], [8, 8, 8, 6, 3], [3, 5, 5, 5, 4]]","[[2, 2, 2, 2, 2], [2, 0, 2, 2, 2], [2, 2, 2, 2, 0], [2, 0, 2, 2, 0], [2, 2, 0, 0, 2]]","[7, 1, 2, 8, 12]",18,9,1,0.062,0.0593333333333333,0.00266666666666667,"[4, 9, 24, 20]",4,"greedy",5,5,11085,8,186,178,11608925192764712960,"attentional-mouselab",13,313829,2
"74","mouselab","False","[12, 12, 20, 20, 11, 11, 1, 1, 21, 13, 14, 10]","[[4, 4, 7, 8, 5], [4, 3, 4, 5, 6], [4, 5, 4, 2, 6], [5, 7, 8, 3, 4], [4, 7, 8, 6, 6]]","[[2, 2, 2, 2, 0], [0, 2, 2, 2, 2], [2, 2, 2, 2, 2], [2, 2, 0, 2, 0], [2, 2, 2, 0, 0]]","[7, 5, 7, 4, 7]",6,10,2,0.062,0.058,0.004,"[12, 20, 11, 1]",4,"random",5,5,46346,12,185,173,11255702964749293568,"attentional-mouselab",14,361515,2
"75","mouselab","False","[0, 0, 1, 1, 2, 2, 3, 3, 19, 19]","[[6, 4, 2, 5, 7], [5, 7, 5, 3, 4], [4, 4, 5, 6, 6], [6, 4, 4, 7, 3], [3, 3, 8, 0, 6]]","[[2, 2, 2, 2, 0], [2, 2, 2, 2, 2], [2, 2, 2, 2, 2], [0, 2, 0, 2, 2], [0, 2, 0, 0, 2]]","[8, 3, 6, 10, 3]",12,11,2,0.042,0.0386666666666667,0.00333333333333333,"[0, 1, 2, 3, 19]",5,"greedy",5,5,20717,10,125,115,3775521405114905600,"attentional-mouselab",15,384264,2
"76","mouselab","False","[]","[[9, 8, 4, 5, 4], [7, 1, 3, 5, 5], [8, 4, 4, 6, 4], [3, 7, 4, 2, 3], [6, 6, 7, 3, 9]]","[[0, 2, 0, 2, 0], [2, 2, 2, 2, 2], [0, 0, 2, 2, 2], [2, 2, 2, 2, 2], [0, 2, 2, 2, 2]]","[6, 2, 10, 6, 6]",8,12,0,0.067,0.067,0,"[]",0,"random",5,5,12716,0,202,202,1.6512119593613e+19,"attentional-mouselab",16,398506,2
"77","mouselab","False","[15, 15, 20, 20, 0, 0, 18, 18, 16, 16]","[[5, 5, 7, 8, 8], [4, 3, 5, 6, 6], [3, 1, 6, 4, 4], [5, 6, 8, 4, 6], [2, 8, 4, 5, 3]]","[[2, 2, 0, 2, 2], [2, 2, 2, 0, 2], [2, 2, 0, 2, 0], [2, 2, 0, 2, 0], [2, 2, 2, 2, 2]]","[7, 4, 3, 15, 1]",20,13,2,0.07,0.0666666666666667,0.00333333333333333,"[15, 20, 0, 18, 16]",5,"greedy",5,5,37473,10,211,201,139118853272109728,"attentional-mouselab",17,437226,2
"78","mouselab","False","[22, 13, 8, 8, 3, 3]","[[6, 3, 7, 7, 8], [5, 6, 5, 3, 1], [4, 5, 9, 6, 6], [7, 4, 6, 6, 4], [5, 8, 5, 9, 2]]","[[2, 2, 2, 2, 0], [2, 2, 2, 2, 0], [0, 2, 0, 2, 2], [0, 2, 2, 2, 2], [2, 2, 2, 0, 2]]","[4, 1, 6, 11, 8]",14,14,3,0.068,0.066,0.002,"[8, 3]",2,"extreme",5,5,9668,6,205,199,1.1303365877844e+19,"attentional-mouselab",18,448106,2
"79","mouselab","False","[10, 10, 20, 20, 14, 9]","[[5, 6, 6, 3, 4], [4, 6, 5, 6, 6], [6, 6, 4, 6, 4], [7, 4, 7, 4, 4], [3, 5, 5, 5, 5]]","[[2, 0, 2, 0, 2], [2, 0, 2, 2, 2], [2, 0, 2, 2, 2], [2, 2, 0, 2, 2], [2, 2, 0, 2, 2]]","[5, 9, 9, 4, 3]",12,15,4,0.047,0.045,0.002,"[10, 20]",2,"greedy",5,5,14088,6,141,135,13273438515743737856,"attentional-mouselab",19,463604,2
"80","mouselab","False","[5, 5]","[[4, 4, 3, 8, 1], [6, 5, 5, 7, 3], [6, 1, 2, 3, 4], [6, 4, 7, 8, 6], [4, 5, 5, 6, 7]]","[[2, 2, 2, 0, 0], [2, 2, 2, 2, 2], [0, 0, 0, 2, 2], [0, 2, 2, 2, 2], [2, 2, 2, 2, 2]]","[3, 5, 8, 7, 7]",8,16,0,0.053,0.0523333333333333,0.000666666666666667,"[5]",1,"extreme",5,5,2191,2,160,158,15124496326205227008,"attentional-mouselab",20,466947,2
"81","mouselab","False","[11, 11]","[[7, 6, 3, 6, 3], [6, 6, 6, 4, 7], [2, 7, 5, 4, 4], [5, 4, 5, 5, 6], [5, 5, 4, 9, 6]]","[[2, 2, 2, 2, 2], [2, 2, 0, 2, 2], [0, 2, 0, 0, 2], [2, 2, 2, 2, 2], [2, 0, 2, 2, 0]]","[4, 9, 2, 5, 10]",14,17,1,0.054,0.0533333333333333,0.000666666666666667,"[11]",1,"random",5,5,7127,2,162,160,6272482606243725312,"attentional-mouselab",21,476473,2
"82","mouselab","False","[]","[[8, 4, 7, 4, 6], [9, 7, 6, 6, 3], [6, 6, 5, 0, 6], [6, 7, 5, 5, 5], [8, 6, 6, 6, 3]]","[[0, 2, 2, 2, 2], [0, 2, 2, 2, 2], [2, 2, 2, 2, 2], [0, 2, 0, 0, 2], [0, 2, 2, 2, 2]]","[1, 4, 2, 5, 18]",24,18,0,0.077,0.077,0,"[]",0,"greedy",5,5,3458,0,230,230,17809061008987598848,"attentional-mouselab",22,481255,2
"83","mouselab","False","[11, 11, 19, 19, 14, 14]","[[6, 7, 5, 5, 2], [3, 8, 3, 5, 4], [7, 6, 6, 5, 5], [3, 6, 4, 7, 6], [6, 6, 4, 6, 4]]","[[2, 0, 2, 2, 0], [2, 0, 0, 2, 2], [2, 2, 2, 2, 2], [2, 0, 2, 2, 2], [0, 2, 2, 2, 2]]","[3, 2, 10, 8, 7]",14,19,0,0.053,0.051,0.002,"[11, 19, 14]",3,"extreme",5,5,8228,6,160,154,10662700296018544640,"attentional-mouselab",23,490794,2
"84","mouselab","False","[]","[[5, 6, 7, 4, 4], [6, 7, 8, 5, 5], [3, 6, 4, 3, 7], [5, 3, 4, 5, 6], [5, 7, 4, 6, 8]]","[[0, 2, 2, 2, 2], [2, 2, 0, 2, 2], [0, 2, 2, 0, 2], [2, 0, 2, 2, 2], [2, 2, 2, 2, 0]]","[8, 6, 2, 11, 3]",14,20,2,0.056,0.056,0,"[]",0,"extreme",5,5,2418,0,168,168,14632811034550286336,"attentional-mouselab",24,496013,2
"85","mouselab","False","[5, 5, 8, 9, 7, 20, 21, 22, 24, 8, 24, 19, 19, 0, 0, 21]","[[3, 7, 4, 4, 8], [6, 8, 8, 9, 5], [9, 5, 4, 4, 5], [3, 4, 3, 6, 4], [7, 7, 7, 5, 6]]","[[2, 0, 2, 2, 2], [2, 0, 2, 2, 2], [0, 2, 2, 2, 0], [2, 0, 2, 2, 2], [2, 2, 2, 0, 2]]","[2, 11, 6, 4, 7]",12,21,1,0.066,0.0606666666666667,0.00533333333333333,"[5, 8, 24, 19, 0, 21]",6,"greedy",5,5,26653,16,197,181,9200857028978719744,"attentional-mouselab",25,523645,2
"86","mouselab","False","[4, 4, 15, 16, 17, 18, 19, 16]","[[4, 6, 5, 5, 1], [4, 2, 2, 6, 5], [4, 3, 5, 3, 6], [6, 5, 5, 3, 9], [4, 5, 4, 5, 5]]","[[2, 0, 2, 2, 2], [2, 2, 2, 2, 2], [0, 0, 2, 0, 2], [2, 2, 2, 2, 2], [2, 2, 0, 0, 2]]","[18, 2, 2, 5, 3]",24,22,1,0.053,0.0503333333333333,0.00266666666666667,"[4, 16]",2,"random",5,5,23046,8,158,150,15322099884905490432,"attentional-mouselab",26,548085,2
"87","mouselab","False","[4, 4]","[[5, 6, 4, 7, 5], [7, 5, 4, 4, 2], [7, 4, 5, 3, 5], [5, 6, 4, 5, 10], [5, 3, 6, 3, 3]]","[[2, 0, 2, 0, 2], [2, 2, 2, 2, 2], [2, 2, 2, 2, 0], [2, 2, 2, 2, 0], [2, 2, 0, 0, 2]]","[8, 4, 7, 8, 3]",10,23,4,0.057,0.0563333333333333,0.000666666666666667,"[4]",1,"random",5,5,4197,2,172,170,12925521583334830080,"attentional-mouselab",27,553585,2
"88","mouselab","False","[5, 10, 10]","[[7, 5, 5, 7, 4], [1, 6, 3, 2, 6], [6, 3, 6, 5, 4], [8, 6, 4, 7, 5], [1, 8, 7, 5, 4]]","[[0, 0, 2, 2, 2], [2, 2, 2, 0, 2], [2, 2, 2, 0, 0], [2, 2, 2, 2, 2], [2, 2, 2, 0, 2]]","[1, 15, 10, 2, 2]",26,24,0,0.033,0.032,0.001,"[10]",1,"random",5,5,8995,3,100,97,13963410223792076800,"attentional-mouselab",28,564847,2
"89","mouselab","False","[8, 8, 18, 18, 11, 16, 15, 15, 16, 16]","[[5, 7, 3, 8, 2], [5, 6, 5, 4, 5], [4, 4, 3, 7, 5], [5, 6, 5, 6, 1], [7, 4, 3, 6, 4]]","[[0, 2, 0, 0, 0], [2, 2, 2, 2, 2], [2, 2, 2, 0, 2], [2, 2, 2, 2, 0], [2, 2, 2, 2, 2]]","[9, 6, 3, 8, 4]",10,25,1,0.058,0.055,0.003,"[8, 18, 15, 16]",4,"extreme",5,5,13612,9,175,166,9716816640743131136,"attentional-mouselab",29,579549,2
"90","mouselab","False","[19, 19, 24, 24, 17, 17, 8, 8]","[[6, 3, 5, 2, 5], [6, 6, 6, 5, 5], [6, 4, 4, 4, 5], [2, 7, 3, 3, 3], [8, 5, 1, 4, 3]]","[[2, 0, 2, 2, 2], [0, 2, 2, 2, 0], [2, 0, 2, 2, 2], [0, 2, 2, 0, 2], [2, 2, 2, 2, 2]]","[8, 7, 6, 4, 5]",6,26,3,0.036,0.0333333333333333,0.00266666666666667,"[19, 24, 17, 8]",4,"random",5,5,35877,8,107,99,4883325147628268544,"attentional-mouselab",30,616870,2
"91","mouselab","False","[9, 9, 4, 4]","[[2, 4, 6, 9, 8], [4, 7, 5, 3, 4], [6, 2, 5, 1, 4], [8, 7, 3, 6, 6], [7, 6, 4, 3, 2]]","[[2, 2, 0, 0, 2], [2, 2, 2, 2, 2], [2, 0, 2, 0, 2], [2, 2, 0, 2, 2], [2, 0, 2, 2, 2]]","[3, 1, 11, 10, 5]",18,27,4,0.047,0.0456666666666667,0.00133333333333333,"[9, 4]",2,"extreme",5,5,22897,4,142,138,3168607233286841344,"attentional-mouselab",31,644348,2
"92","mouselab","False","[10, 10, 15, 15, 11, 11]","[[4, 6, 8, 7, 5], [7, 4, 5, 3, 8], [6, 2, 5, 4, 3], [4, 3, 4, 4, 5], [4, 4, 7, 5, 7]]","[[2, 2, 2, 2, 0], [2, 2, 2, 2, 2], [2, 2, 2, 0, 0], [2, 2, 2, 0, 0], [2, 2, 2, 0, 2]]","[6, 10, 4, 4, 6]",8,28,0,0.053,0.051,0.002,"[10, 15, 11]",3,"random",5,5,18518,6,158,152,14324000934189901824,"attentional-mouselab",32,664179,2
"93","mouselab","False","[]","[[7, 7, 5, 3, 7], [7, 2, 7, 5, 4], [5, 4, 2, 4, 6], [5, 2, 6, 4, 7], [6, 4, 7, 6, 6]]","[[0, 2, 2, 2, 2], [2, 2, 0, 2, 0], [0, 2, 0, 2, 2], [2, 2, 2, 2, 0], [2, 2, 2, 2, 2]]","[2, 9, 5, 9, 5]",12,29,0,0.059,0.059,0,"[]",0,"greedy",5,5,11022,0,177,177,5680363038595920896,"attentional-mouselab",33,676813,2
"94","mouselab","False","[]","[[7, 6, 8, 5, 6], [6, 7, 3, 4, 6], [5, 6, 6, 6, 7], [4, 8, 5, 6, 2], [4, 5, 5, 8, 1]]","[[2, 2, 2, 2, 0], [0, 0, 2, 2, 2], [2, 0, 2, 2, 2], [2, 0, 2, 2, 0], [2, 2, 2, 2, 2]]","[2, 8, 8, 1, 11]",18,30,1,0.06,0.06,0,"[]",0,"greedy",5,5,5526,0,179,179,8415910818809745408,"attentional-mouselab",34,683412,2
"95","mouselab","False","[20, 5, 5, 7, 7, 12, 12, 9, 9, 4, 4]","[[5, 2, 4, 5, 7], [3, 2, 5, 7, 3], [4, 5, 4, 3, 4], [6, 2, 3, 2, 3], [4, 4, 7, 7, 7]]","[[2, 2, 2, 0, 2], [2, 2, 2, 2, 2], [2, 2, 2, 0, 2], [0, 0, 0, 2, 2], [2, 2, 2, 2, 0]]","[8, 3, 8, 7, 4]",10,31,4,0.049,0.0453333333333333,0.00366666666666667,"[5, 7, 12, 9, 4]",5,"random",5,5,37905,11,146,135,14999603768434063360,"attentional-mouselab",35,722591,2
"96","mouselab","False","[23, 23]","[[3, 5, 4, 2, 6], [7, 5, 7, 5, 6], [5, 2, 6, 8, 10], [5, 5, 5, 6, 2], [2, 2, 4, 5, 6]]","[[2, 0, 2, 2, 0], [2, 2, 2, 2, 2], [2, 2, 2, 0, 2], [2, 2, 2, 0, 2], [0, 2, 2, 2, 0]]","[6, 6, 4, 12, 2]",12,32,3,0.052,0.0513333333333333,0.000666666666666667,"[23]",1,"random",5,5,6091,2,156,154,9227678663636400128,"attentional-mouselab",36,729756,2
"97","mouselab","True","[17, 17, 2, 2, 1, 1]","[[7, 3, 4, 2, 7], [4, 6, 8, 6, 5], [3, 5, 6, 7, 4], [6, 5, 4, 5, 6], [6, 6, 6, 5, 4]]","[[0, 2, 2, 0, 2], [2, 0, 2, 2, 2], [2, 2, 0, 2, 2], [2, 0, 2, 2, 2], [2, 2, 0, 2, 2]]","[13, 2, 4, 6, 5]",14,1,2,0.049,0.047,0.002,"[17, 2, 1]",3,"random",5,5,54720,6,146,140,18383488243467153408,"attentional-mouselab",4,334951,3
"98","mouselab","True","[1, 1]","[[5, 6, 5, 8, 5], [6, 4, 10, 5, 2], [5, 5, 5, 2, 6], [2, 8, 5, 9, 2], [7, 5, 5, 6, 6]]","[[0, 2, 2, 2, 2], [2, 0, 2, 0, 2], [2, 0, 2, 2, 2], [0, 0, 2, 2, 2], [2, 2, 2, 2, 2]]","[16, 5, 3, 4, 2]",20,2,1,0.058,0.0573333333333333,0.000666666666666667,"[1]",1,"random",5,5,10462,2,173,171,13306836032672135168,"attentional-mouselab",5,352355,3
"99","mouselab","False","[6, 6, 7, 7]","[[4, 6, 4, 8, 6], [5, 4, 7, 0, 4], [1, 6, 6, 4, 4], [5, 5, 4, 6, 4], [5, 6, 3, 6, 4]]","[[2, 0, 2, 2, 2], [2, 2, 2, 2, 0], [0, 0, 0, 2, 2], [2, 2, 0, 2, 2], [2, 2, 2, 2, 2]]","[1, 16, 2, 3, 8]",24,3,2,0.055,0.0536666666666667,0.00133333333333333,"[6, 7]",2,"random",5,5,14804,4,164,160,16598981920867491840,"attentional-mouselab",7,372650,3
"100","mouselab","False","[23, 23]","[[4, 2, 6, 5, 7], [5, 4, 6, 6, 5], [4, 5, 6, 7, 5], [3, 5, 4, 4, 8], [6, 4, 4, 5, 2]]","[[2, 2, 2, 2, 2], [2, 2, 0, 0, 2], [0, 2, 2, 0, 2], [2, 2, 2, 2, 0], [2, 2, 0, 2, 2]]","[4, 7, 6, 6, 7]",4,4,3,0.054,0.0533333333333333,0.000666666666666667,"[23]",1,"greedy",5,5,18529,2,163,161,4196976093636715520,"attentional-mouselab",8,393170,3
"101","mouselab","False","[4, 4]","[[5, 5, 6, 5, 5], [6, 4, 6, 6, 6], [6, 6, 6, 4, 7], [0, 3, 6, 5, 5], [5, 8, 6, 6, 7]]","[[2, 2, 2, 2, 2], [0, 2, 2, 2, 0], [2, 2, 2, 2, 0], [2, 2, 0, 0, 2], [2, 2, 2, 2, 0]]","[11, 4, 4, 5, 6]",10,5,4,0.058,0.0573333333333333,0.000666666666666667,"[4]",1,"greedy",5,5,9325,2,174,172,2758936428490077696,"attentional-mouselab",9,405996,3
"102","mouselab","False","[2, 2, 14, 14]","[[5, 5, 3, 7, 6], [7, 10, 3, 5, 8], [5, 5, 6, 5, 5], [3, 5, 6, 8, 6], [5, 4, 5, 5, 7]]","[[2, 0, 2, 2, 0], [2, 2, 2, 2, 2], [2, 2, 2, 0, 2], [2, 2, 0, 2, 0], [2, 0, 2, 2, 2]]","[11, 5, 8, 2, 4]",14,6,4,0.062,0.0606666666666667,0.00133333333333333,"[2, 14]",2,"random",5,5,18337,4,186,182,11497730517897109504,"attentional-mouselab",10,426280,3
"103","mouselab","False","[6, 6, 17, 17]","[[6, 7, 5, 6, 6], [2, 3, 9, 3, 6], [6, 5, 4, 2, 4], [6, 5, 5, 5, 5], [5, 7, 4, 6, 1]]","[[2, 0, 2, 2, 2], [2, 2, 0, 2, 2], [2, 0, 2, 2, 2], [2, 0, 2, 2, 2], [2, 0, 0, 2, 2]]","[1, 12, 7, 8, 2]",18,7,2,0.063,0.0616666666666667,0.00133333333333333,"[6, 17]",2,"greedy",5,5,14005,4,189,185,15305317117221312512,"attentional-mouselab",11,441838,3
"104","mouselab","False","[15, 15, 16, 16, 11, 11]","[[7, 6, 7, 5, 4], [3, 4, 4, 8, 5], [8, 3, 6, 2, 5], [5, 3, 1, 8, 5], [3, 6, 4, 5, 4]]","[[2, 0, 2, 2, 0], [2, 2, 0, 2, 2], [0, 2, 2, 2, 2], [2, 2, 2, 2, 2], [0, 2, 2, 2, 0]]","[6, 6, 8, 8, 2]",8,8,0,0.057,0.055,0.002,"[15, 16, 11]",3,"random",5,5,26932,6,170,164,17860925603270608896,"attentional-mouselab",12,471550,3
"105","mouselab","False","[15, 15]","[[7, 6, 3, 4, 5], [8, 5, 5, 4, 3], [6, 3, 3, 5, 6], [4, 1, 4, 5, 5], [6, 7, 4, 5, 6]]","[[0, 2, 2, 2, 0], [0, 2, 2, 2, 2], [0, 2, 2, 2, 2], [2, 0, 2, 2, 2], [2, 0, 2, 2, 2]]","[9, 1, 14, 5, 1]",22,9,0,0.06,0.0593333333333333,0.000666666666666667,"[15]",1,"extreme",5,5,21623,2,181,179,15406485141479456768,"attentional-mouselab",13,495220,3
"106","mouselab","False","[18, 18, 16, 16]","[[6, 5, 6, 4, 6], [5, 4, 9, 9, 4], [5, 4, 5, 6, 4], [2, 7, 6, 2, 3], [4, 6, 7, 7, 5]]","[[2, 2, 0, 2, 2], [2, 2, 0, 0, 2], [2, 2, 0, 2, 2], [2, 2, 0, 2, 2], [2, 2, 0, 2, 2]]","[8, 2, 6, 10, 4]",12,10,2,0.061,0.0596666666666667,0.00133333333333333,"[18, 16]",2,"greedy",5,5,21802,4,184,180,635764397481099264,"attentional-mouselab",14,518520,3
"107","mouselab","False","[4, 4, 2, 2]","[[3, 7, 8, 3, 5], [7, 4, 3, 4, 7], [7, 5, 6, 4, 8], [4, 6, 4, 3, 5], [8, 3, 7, 6, 8]]","[[2, 2, 2, 2, 2], [2, 2, 0, 2, 2], [2, 2, 0, 0, 0], [2, 2, 2, 2, 2], [0, 2, 2, 2, 0]]","[11, 5, 3, 7, 4]",12,11,2,0.059,0.0576666666666667,0.00133333333333333,"[4, 2]",2,"extreme",5,5,29182,4,177,173,9672768658614673408,"attentional-mouselab",15,549705,3
"108","mouselab","False","[4, 4]","[[5, 5, 7, 8, 8], [4, 3, 5, 6, 6], [3, 1, 6, 4, 4], [5, 6, 8, 4, 6], [2, 8, 4, 5, 3]]","[[2, 2, 2, 2, 2], [2, 2, 2, 0, 0], [2, 2, 2, 2, 0], [2, 0, 2, 2, 0], [2, 0, 2, 2, 2]]","[10, 2, 4, 5, 9]",14,12,4,0.055,0.0543333333333333,0.000666666666666667,"[4]",1,"random",5,5,7402,2,165,163,139118853272109728,"attentional-mouselab",16,559493,3
"109","mouselab","False","[3, 3, 15, 15, 16, 16, 19, 19]","[[6, 6, 6, 4, 5], [6, 7, 4, 4, 2], [4, 5, 5, 4, 4], [5, 5, 3, 7, 5], [5, 5, 4, 4, 8]]","[[0, 0, 2, 2, 2], [2, 2, 2, 2, 0], [2, 2, 2, 2, 2], [2, 2, 0, 0, 2], [2, 2, 2, 2, 0]]","[10, 6, 2, 11, 1]",18,13,3,0.051,0.0483333333333333,0.00266666666666667,"[3, 15, 16, 19]",4,"extreme",5,5,24930,8,153,145,2388064299653608960,"attentional-mouselab",17,586032,3
"110","mouselab","False","[]","[[5, 7, 3, 8, 4], [5, 2, 3, 5, 3], [8, 6, 6, 6, 5], [2, 4, 3, 4, 5], [6, 4, 3, 7, 6]]","[[2, 0, 2, 0, 2], [2, 2, 0, 2, 2], [2, 2, 2, 0, 2], [2, 2, 2, 2, 2], [2, 0, 2, 0, 2]]","[2, 5, 2, 7, 14]",18,14,3,0.06,0.06,0,"[]",0,"greedy",5,5,6750,0,179,179,16957602526905786368,"attentional-mouselab",18,594379,3
"111","mouselab","False","[9, 9, 7, 7, 6, 6, 5, 5, 8, 8]","[[7, 6, 7, 5, 6], [6, 2, 7, 4, 4], [6, 4, 3, 4, 7], [2, 2, 5, 5, 7], [1, 4, 5, 4, 9]]","[[2, 2, 2, 2, 2], [2, 2, 2, 2, 2], [2, 2, 2, 2, 0], [0, 2, 0, 2, 0], [2, 2, 2, 0, 0]]","[8, 17, 2, 2, 1]",26,15,2,0.065,0.0616666666666667,0.00333333333333333,"[9, 7, 6, 5, 8]",5,"greedy",5,5,20205,10,196,186,13521414026584764416,"attentional-mouselab",19,616261,3
"112","mouselab","False","[20, 20]","[[7, 4, 3, 4, 6], [2, 7, 2, 5, 7], [3, 5, 7, 5, 8], [6, 3, 5, 5, 8], [3, 6, 5, 2, 6]]","[[2, 2, 2, 2, 2], [2, 2, 2, 2, 0], [2, 2, 2, 2, 0], [0, 2, 2, 2, 0], [2, 2, 2, 0, 0]]","[2, 3, 2, 20, 3]",28,16,4,0.076,0.0753333333333333,0.000666666666666667,"[20]",1,"greedy",5,5,15130,2,227,225,15122100309095845888,"attentional-mouselab",20,632788,3
"113","mouselab","False","[2, 2, 1, 1]","[[4, 8, 1, 2, 4], [5, 5, 2, 5, 4], [3, 5, 6, 5, 5], [1, 5, 9, 3, 3], [5, 5, 2, 6, 3]]","[[2, 2, 2, 2, 2], [2, 2, 2, 2, 2], [0, 0, 2, 2, 2], [2, 2, 0, 0, 0], [2, 0, 2, 2, 2]]","[13, 6, 4, 6, 1]",14,17,1,0.063,0.0616666666666667,0.00133333333333333,"[2, 1]",2,"random",5,5,12633,4,189,185,4321635666769067008,"attentional-mouselab",21,646951,3
"114","mouselab","False","[12, 12, 16, 16]","[[6, 4, 9, 7, 6], [7, 6, 1, 6, 6], [3, 6, 5, 3, 4], [5, 6, 9, 4, 6], [5, 5, 7, 7, 6]]","[[2, 2, 2, 2, 2], [2, 2, 2, 2, 2], [2, 0, 2, 0, 0], [2, 2, 2, 0, 0], [0, 2, 2, 2, 2]]","[1, 2, 15, 7, 5]",20,18,1,0.058,0.0566666666666667,0.00133333333333333,"[12, 16]",2,"random",5,5,27056,4,173,169,1418150985754392576,"attentional-mouselab",22,676112,3
"115","mouselab","False","[16, 16, 15, 15]","[[2, 5, 5, 4, 7], [5, 9, 4, 5, 6], [3, 5, 6, 8, 4], [4, 4, 6, 2, 4], [4, 3, 5, 5, 6]]","[[0, 2, 2, 2, 2], [2, 0, 2, 0, 2], [2, 2, 2, 2, 2], [2, 2, 2, 0, 2], [0, 2, 0, 2, 2]]","[1, 11, 2, 12, 4]",22,19,1,0.058,0.0566666666666667,0.00133333333333333,"[16, 15]",2,"extreme",5,5,28766,4,174,170,1107789570758785152,"attentional-mouselab",23,708107,3
"116","mouselab","False","[12, 12, 22, 22]","[[4, 5, 8, 4, 3], [4, 5, 4, 6, 5], [4, 4, 4, 6, 5], [7, 6, 6, 3, 5], [5, 4, 6, 8, 3]]","[[2, 2, 0, 2, 2], [0, 2, 2, 2, 2], [2, 2, 2, 2, 0], [0, 2, 0, 2, 2], [2, 2, 2, 0, 2]]","[16, 2, 5, 2, 5]",20,20,2,0.066,0.0646666666666667,0.00133333333333333,"[12, 22]",2,"greedy",5,5,10698,4,198,194,15887404127287941120,"attentional-mouselab",24,720314,3
"117","mouselab","False","[7, 7, 6, 6]","[[1, 3, 6, 6, 5], [7, 10, 6, 3, 7], [5, 5, 6, 7, 6], [5, 7, 6, 3, 7], [5, 6, 6, 5, 6]]","[[0, 2, 2, 2, 2], [2, 2, 2, 2, 2], [2, 2, 2, 2, 0], [2, 2, 0, 2, 2], [0, 0, 0, 2, 2]]","[2, 15, 7, 2, 4]",20,21,1,0.076,0.0746666666666667,0.00133333333333333,"[7, 6]",2,"random",5,5,12623,4,229,225,12196281615183435776,"attentional-mouselab",25,734725,3
"118","mouselab","False","[17, 17, 1, 1, 16, 16]","[[7, 4, 4, 3, 3], [6, 5, 8, 4, 4], [3, 5, 4, 5, 6], [3, 6, 5, 4, 4], [7, 7, 3, 3, 5]]","[[2, 2, 2, 0, 2], [2, 2, 0, 2, 0], [2, 2, 2, 2, 2], [0, 2, 2, 2, 2], [0, 0, 2, 2, 2]]","[8, 2, 5, 14, 1]",20,22,1,0.053,0.051,0.002,"[17, 1, 16]",3,"extreme",5,5,20823,6,158,152,2715946957725582336,"attentional-mouselab",26,757102,3
"119","mouselab","False","[8, 8]","[[4, 7, 3, 6, 9], [1, 4, 4, 6, 6], [6, 5, 9, 5, 5], [5, 4, 8, 9, 4], [3, 1, 3, 4, 4]]","[[2, 2, 2, 0, 0], [2, 2, 2, 2, 2], [2, 2, 0, 2, 2], [2, 2, 2, 0, 2], [0, 2, 0, 2, 2]]","[3, 13, 2, 4, 8]",18,23,3,0.058,0.0573333333333333,0.000666666666666667,"[8]",1,"greedy",5,5,13713,2,174,172,5359585491744226304,"attentional-mouselab",27,772436,3
"120","mouselab","False","[2, 2, 4, 4, 1, 1, 0, 0, 3, 3]","[[3, 4, 2, 6, 6], [7, 3, 7, 7, 4], [6, 6, 7, 3, 6], [5, 3, 3, 5, 2], [5, 7, 5, 4, 4]]","[[2, 2, 2, 2, 2], [2, 2, 2, 2, 0], [2, 2, 0, 2, 2], [0, 2, 0, 2, 2], [2, 0, 0, 2, 2]]","[13, 5, 9, 2, 1]",20,24,4,0.053,0.0496666666666667,0.00333333333333333,"[2, 4, 1, 0, 3]",5,"random",5,5,21555,10,160,150,9355404856315711488,"attentional-mouselab",28,795611,3
"121","mouselab","False","[0, 0, 1, 1, 4, 4, 2, 2]","[[5, 3, 7, 5, 4], [3, 8, 4, 8, 4], [7, 1, 3, 3, 7], [5, 3, 6, 7, 3], [4, 5, 2, 5, 3]]","[[2, 2, 2, 0, 2], [2, 2, 2, 0, 2], [2, 2, 2, 0, 2], [2, 2, 2, 2, 0], [2, 0, 2, 0, 2]]","[17, 4, 2, 5, 2]",22,25,2,0.058,0.0553333333333333,0.00266666666666667,"[0, 1, 4, 2]",4,"random",5,5,18821,8,175,167,2748651032641616896,"attentional-mouselab",29,822061,3
"122","mouselab","False","[22, 22, 21, 21, 20, 20]","[[5, 5, 8, 6, 5], [4, 2, 4, 3, 5], [6, 2, 5, 5, 5], [7, 3, 3, 4, 4], [5, 6, 5, 5, 5]]","[[2, 2, 0, 2, 2], [0, 0, 2, 2, 2], [2, 0, 2, 2, 2], [2, 2, 2, 2, 0], [2, 2, 2, 0, 2]]","[3, 3, 4, 6, 14]",16,26,1,0.044,0.042,0.002,"[22, 21, 20]",3,"extreme",5,5,25110,6,131,125,5578899025430751232,"attentional-mouselab",30,848802,3
"123","mouselab","False","[21, 21]","[[4, 6, 6, 5, 5], [7, 7, 5, 6, 2], [5, 7, 8, 7, 3], [7, 7, 4, 5, 6], [5, 7, 5, 3, 4]]","[[2, 2, 2, 2, 2], [2, 0, 2, 2, 0], [2, 0, 0, 2, 0], [2, 2, 2, 2, 2], [2, 2, 2, 2, 0]]","[1, 14, 2, 1, 12]",28,27,1,0.07,0.0693333333333333,0.000666666666666667,"[21]",1,"extreme",5,5,8661,2,209,207,6726165064792318976,"attentional-mouselab",31,859141,3
"124","mouselab","False","[20, 20]","[[6, 7, 6, 7, 5], [7, 2, 3, 6, 5], [10, 5, 5, 4, 6], [6, 7, 4, 3, 6], [6, 7, 6, 8, 5]]","[[0, 2, 2, 2, 0], [0, 2, 2, 2, 2], [0, 2, 2, 2, 2], [0, 2, 2, 2, 0], [2, 2, 2, 2, 2]]","[10, 2, 2, 3, 13]",22,28,0,0.063,0.0623333333333333,0.000666666666666667,"[20]",1,"greedy",5,5,9865,2,190,188,3432646595286237696,"attentional-mouselab",32,870571,3
"125","mouselab","False","[20, 20, 22, 22, 24, 24]","[[6, 4, 7, 6, 3], [7, 5, 6, 5, 4], [7, 2, 3, 2, 5], [5, 4, 4, 3, 2], [6, 4, 5, 7, 6]]","[[2, 2, 2, 2, 0], [2, 2, 2, 2, 2], [2, 0, 0, 0, 2], [2, 2, 0, 2, 0], [2, 2, 2, 2, 2]]","[7, 1, 8, 1, 13]",20,29,4,0.048,0.046,0.002,"[20, 22, 24]",3,"extreme",5,5,17021,6,145,139,13082843004408850432,"attentional-mouselab",33,889100,3
"126","mouselab","False","[12, 12]","[[4, 3, 10, 2, 7], [6, 5, 2, 2, 7], [6, 4, 4, 4, 2], [4, 6, 4, 7, 5], [6, 3, 5, 2, 4]]","[[2, 2, 0, 2, 2], [2, 2, 0, 2, 2], [2, 2, 2, 2, 0], [2, 2, 2, 2, 2], [2, 0, 0, 0, 2]]","[13, 2, 10, 3, 2]",22,30,2,0.065,0.0643333333333333,0.000666666666666667,"[12]",1,"extreme",5,5,19597,2,196,194,16812295249856929792,"attentional-mouselab",34,910217,3
"127","mouselab","False","[16, 16, 17, 17]","[[5, 8, 5, 5, 5], [4, 6, 6, 2, 6], [7, 6, 4, 5, 8], [1, 3, 8, 3, 6], [7, 8, 7, 5, 4]]","[[2, 0, 2, 2, 2], [2, 0, 2, 2, 2], [0, 2, 2, 2, 0], [2, 2, 2, 2, 2], [2, 0, 0, 2, 2]]","[1, 5, 1, 18, 5]",24,31,2,0.073,0.0716666666666667,0.00133333333333333,"[16, 17]",2,"random",5,5,16234,4,218,214,4499874907743729664,"attentional-mouselab",35,927970,3
"128","mouselab","False","[12, 12, 2, 2]","[[4, 7, 6, 5, 1], [5, 3, 4, 6, 4], [6, 6, 5, 3, 6], [3, 6, 5, 5, 6], [4, 2, 6, 4, 5]]","[[2, 2, 2, 2, 0], [2, 2, 2, 2, 2], [2, 2, 2, 0, 2], [2, 0, 2, 2, 0], [2, 0, 0, 2, 2]]","[5, 5, 11, 3, 6]",10,32,2,0.052,0.0506666666666667,0.00133333333333333,"[12, 2]",2,"extreme",5,5,18753,4,156,152,10064628167123716096,"attentional-mouselab",36,948152,3
"129","mouselab","True","[6, 6, 9, 9]","[[2, 6, 8, 6, 4], [4, 6, 5, 5, 5], [4, 3, 6, 3, 1], [2, 7, 6, 2, 3], [5, 5, 7, 6, 4]]","[[2, 2, 0, 2, 2], [0, 2, 0, 0, 2], [2, 0, 2, 2, 2], [2, 2, 2, 2, 2], [2, 2, 2, 2, 0]]","[6, 14, 5, 1, 4]",16,1,1,0.054,0.0526666666666667,0.00133333333333333,"[6, 9]",2,"random",5,5,10160,4,162,158,4444623863157690368,"attentional-mouselab",4,206174,4
"130","mouselab","True","[15, 15, 18, 18, 17, 17, 16, 16, 19, 19]","[[9, 8, 4, 5, 4], [7, 1, 3, 5, 5], [8, 4, 4, 6, 4], [3, 7, 4, 2, 3], [6, 6, 7, 3, 9]]","[[0, 2, 0, 2, 0], [2, 2, 2, 2, 2], [0, 0, 2, 2, 2], [2, 2, 2, 2, 2], [0, 2, 2, 2, 2]]","[3, 6, 3, 17, 1]",22,2,1,0.056,0.0526666666666667,0.00333333333333333,"[15, 18, 17, 16, 19]",5,"random",5,5,10405,10,167,157,1.6512119593613e+19,"attentional-mouselab",5,221200,4
"131","mouselab","False","[5, 5, 6, 6, 7, 7]","[[4, 4, 6, 9, 2], [5, 4, 7, 6, 7], [7, 3, 2, 6, 4], [6, 7, 5, 5, 4], [3, 2, 6, 4, 3]]","[[2, 0, 2, 2, 2], [2, 2, 2, 2, 2], [2, 2, 2, 0, 0], [0, 2, 2, 2, 2], [2, 2, 2, 0, 0]]","[4, 17, 4, 3, 2]",22,3,2,0.059,0.057,0.002,"[5, 6, 7]",3,"random",5,5,5540,6,178,172,2460015786837246976,"attentional-mouselab",7,232418,4
"132","mouselab","False","[]","[[5, 0, 5, 4, 7], [4, 5, 5, 6, 2], [0, 4, 7, 4, 6], [6, 6, 4, 6, 5], [4, 6, 6, 4, 4]]","[[2, 2, 2, 2, 0], [0, 2, 2, 2, 2], [2, 2, 0, 2, 2], [0, 2, 2, 2, 2], [2, 2, 0, 0, 2]]","[3, 2, 16, 5, 4]",20,4,2,0.06,0.06,0,"[]",0,"random",5,5,5745,0,181,181,11226361494799634432,"attentional-mouselab",8,241038,4
"133","mouselab","False","[5, 5]","[[5, 1, 4, 7, 4], [6, 6, 5, 8, 5], [4, 3, 5, 5, 6], [10, 6, 5, 3, 6], [6, 6, 7, 3, 3]]","[[2, 2, 2, 2, 2], [2, 2, 2, 0, 2], [2, 2, 0, 2, 0], [0, 2, 2, 0, 2], [0, 2, 2, 2, 2]]","[3, 13, 10, 2, 2]",22,5,0,0.055,0.0543333333333333,0.000666666666666667,"[5]",1,"greedy",5,5,5469,2,165,163,135566356390517760,"attentional-mouselab",9,247948,4
"134","mouselab","False","[2, 2, 1, 1]","[[4, 7, 3, 6, 9], [1, 4, 4, 6, 6], [6, 5, 9, 5, 5], [5, 4, 8, 9, 4], [3, 1, 3, 4, 4]]","[[0, 2, 2, 0, 2], [0, 0, 2, 2, 2], [2, 2, 2, 2, 2], [2, 2, 2, 2, 2], [0, 2, 0, 2, 2]]","[17, 2, 7, 3, 1]",24,6,1,0.058,0.0566666666666667,0.00133333333333333,"[2, 1]",2,"random",5,5,8115,4,175,171,5359585491744226304,"attentional-mouselab",10,257732,4
"135","mouselab","False","[24, 24, 19, 4, 4]","[[5, 4, 5, 1, 4], [4, 4, 2, 3, 5], [4, 5, 7, 6, 3], [6, 3, 2, 6, 5], [2, 7, 8, 6, 6]]","[[2, 2, 2, 0, 2], [2, 2, 0, 2, 2], [2, 2, 2, 2, 2], [2, 2, 2, 2, 2], [0, 0, 0, 0, 2]]","[1, 2, 9, 6, 12]",18,7,4,0.048,0.0463333333333333,0.00166666666666667,"[24, 4]",2,"extreme",5,5,23582,5,143,138,139971346326206000,"attentional-mouselab",11,283362,4
"136","mouselab","False","[]","[[5, 5, 8, 6, 6], [5, 5, 5, 6, 7], [8, 5, 6, 5, 5], [2, 7, 3, 5, 8], [7, 4, 2, 2, 5]]","[[2, 2, 2, 2, 2], [2, 2, 2, 2, 2], [0, 2, 0, 0, 2], [2, 2, 2, 2, 0], [2, 2, 0, 0, 2]]","[9, 7, 2, 5, 7]",10,8,0,0.052,0.052,0,"[]",0,"extreme",5,5,5098,0,155,155,424590067875850240,"attentional-mouselab",12,290083,4
"137","mouselab","False","[22, 22, 21, 21]","[[6, 5, 7, 4, 6], [3, 6, 4, 3, 7], [10, 3, 5, 3, 5], [6, 5, 6, 4, 6], [3, 3, 4, 7, 7]]","[[2, 2, 2, 2, 2], [2, 0, 2, 2, 2], [0, 2, 0, 2, 2], [2, 2, 2, 2, 0], [0, 2, 2, 0, 2]]","[2, 6, 4, 8, 10]",12,9,3,0.047,0.0456666666666667,0.00133333333333333,"[22, 21]",2,"extreme",5,5,11257,4,140,136,468514461533905280,"attentional-mouselab",13,306757,4
"138","mouselab","False","[20, 20, 21, 21, 22, 22, 23, 23, 24, 24, 17, 17]","[[2, 5, 6, 5, 5], [7, 3, 5, 10, 5], [7, 7, 6, 4, 4], [4, 6, 4, 6, 5], [4, 6, 6, 6, 4]]","[[2, 0, 2, 2, 0], [0, 0, 2, 2, 2], [0, 2, 2, 2, 2], [2, 2, 2, 2, 0], [2, 2, 2, 2, 2]]","[2, 2, 4, 5, 17]",22,10,2,0.056,0.052,0.004,"[20, 21, 22, 23, 24, 17]",6,"random",5,5,14027,12,168,156,6934410383113065472,"attentional-mouselab",14,323783,4
"139","mouselab","False","[17, 17]","[[5, 7, 2, 6, 4], [6, 5, 7, 8, 6], [4, 5, 6, 3, 5], [5, 3, 5, 1, 7], [6, 3, 6, 5, 4]]","[[2, 2, 2, 2, 2], [2, 2, 2, 2, 2], [2, 0, 0, 2, 2], [2, 0, 2, 2, 2], [0, 2, 0, 0, 2]]","[6, 2, 10, 11, 1]",18,11,2,0.049,0.0483333333333333,0.000666666666666667,"[17]",1,"random",5,5,6428,2,147,145,16912149255111651328,"attentional-mouselab",15,332742,4
"140","mouselab","False","[]","[[4, 6, 4, 3, 5], [3, 10, 7, 5, 6], [5, 2, 5, 5, 5], [2, 3, 6, 5, 1], [3, 2, 4, 3, 4]]","[[2, 0, 2, 2, 2], [2, 2, 0, 2, 2], [2, 2, 2, 0, 2], [2, 2, 0, 2, 0], [0, 2, 2, 2, 2]]","[2, 6, 3, 14, 5]",16,12,2,0.056,0.056,0,"[]",0,"greedy",5,5,5155,0,169,169,14325485843358588928,"attentional-mouselab",16,339652,4
"141","mouselab","False","[23, 23, 20, 20]","[[9, 5, 2, 7, 5], [5, 8, 5, 6, 3], [6, 6, 4, 4, 5], [4, 4, 4, 2, 5], [5, 7, 4, 5, 5]]","[[0, 2, 0, 2, 2], [2, 2, 2, 0, 2], [2, 2, 2, 2, 0], [2, 2, 2, 0, 0], [2, 2, 2, 2, 2]]","[6, 9, 2, 5, 8]",10,13,0,0.057,0.0556666666666667,0.00133333333333333,"[23, 20]",2,"extreme",5,5,13311,4,171,167,13850188661215287296,"attentional-mouselab",17,354924,4
"142","mouselab","False","[5, 5, 7, 7]","[[8, 5, 7, 6, 2], [7, 3, 4, 3, 5], [4, 6, 7, 4, 5], [5, 4, 7, 3, 7], [5, 3, 8, 4, 3]]","[[2, 2, 2, 2, 2], [2, 2, 2, 2, 2], [2, 2, 0, 2, 2], [2, 0, 0, 0, 2], [0, 2, 0, 2, 2]]","[3, 17, 2, 1, 7]",24,14,0,0.064,0.0626666666666667,0.00133333333333333,"[5, 7]",2,"greedy",5,5,6313,4,191,187,5021314054390425600,"attentional-mouselab",18,363900,4
"143","mouselab","False","[20, 20]","[[5, 6, 4, 1, 4], [5, 4, 6, 6, 6], [4, 7, 6, 4, 2], [7, 5, 6, 6, 7], [5, 8, 4, 4, 4]]","[[2, 2, 2, 0, 0], [2, 2, 2, 2, 2], [2, 0, 2, 2, 2], [0, 2, 2, 2, 2], [2, 0, 2, 2, 0]]","[3, 6, 5, 1, 15]",18,15,1,0.067,0.0663333333333333,0.000666666666666667,"[20]",1,"greedy",5,5,5611,2,202,200,1.1737745897215e+19,"attentional-mouselab",19,370378,4
"144","mouselab","False","[]","[[7, 7, 7, 4, 5], [6, 6, 4, 4, 3], [7, 5, 2, 6, 7], [4, 2, 2, 2, 5], [10, 6, 4, 7, 8]]","[[2, 2, 2, 0, 2], [2, 2, 2, 2, 2], [2, 2, 0, 2, 2], [2, 0, 2, 2, 2], [0, 2, 2, 0, 0]]","[9, 3, 2, 4, 12]",18,16,0,0.077,0.077,0,"[]",0,"extreme",5,5,3329,0,231,231,2875342514052187136,"attentional-mouselab",20,376440,4
"145","mouselab","False","[5, 5, 7, 7, 8, 8, 9, 9, 2, 2, 0, 0, 3, 3]","[[6, 6, 5, 6, 5], [5, 5, 5, 5, 3], [7, 8, 6, 4, 6], [3, 3, 8, 7, 4], [6, 3, 8, 6, 5]]","[[2, 0, 2, 2, 2], [2, 0, 2, 2, 2], [2, 0, 2, 0, 2], [2, 0, 2, 2, 2], [0, 2, 2, 2, 2]]","[4, 21, 2, 2, 1]",30,17,0,0.052,0.0473333333333333,0.00466666666666667,"[5, 7, 8, 9, 2, 0, 3]",7,"random",5,5,18749,14,155,141,16647858370430474240,"attentional-mouselab",21,396544,4
"146","mouselab","False","[]","[[7, 6, 5, 5, 5], [7, 7, 4, 6, 5], [9, 7, 7, 3, 3], [8, 7, 4, 3, 5], [6, 4, 8, 3, 2]]","[[2, 2, 2, 0, 2], [0, 0, 2, 2, 2], [2, 2, 2, 0, 2], [2, 0, 2, 2, 2], [2, 2, 0, 2, 2]]","[2, 7, 2, 12, 7]",16,18,1,0.062,0.062,0,"[]",0,"random",5,5,7581,0,187,187,9403867711805638656,"attentional-mouselab",22,405244,4
"147","mouselab","False","[]","[[10, 10, 5, 5, 8], [5, 3, 5, 4, 4], [6, 7, 5, 7, 7], [3, 4, 6, 6, 6], [4, 6, 3, 5, 4]]","[[2, 0, 2, 2, 2], [2, 2, 2, 2, 2], [2, 2, 0, 2, 0], [2, 2, 0, 2, 0], [2, 2, 0, 2, 2]]","[8, 6, 7, 6, 3]",6,19,1,0.063,0.063,0,"[]",0,"greedy",5,5,3101,0,189,189,15850636225755781120,"attentional-mouselab",23,410092,4
"148","mouselab","False","[15, 15, 16, 16, 17, 17]","[[7, 7, 5, 6, 3], [5, 7, 6, 5, 2], [4, 5, 4, 2, 5], [4, 4, 8, 1, 4], [4, 4, 3, 5, 5]]","[[0, 2, 2, 2, 0], [2, 2, 2, 2, 2], [2, 2, 2, 2, 0], [2, 2, 2, 0, 0], [2, 2, 2, 2, 0]]","[1, 4, 3, 12, 10]",20,20,2,0.056,0.054,0.002,"[15, 16, 17]",3,"random",5,5,7123,6,167,161,5950606499305605120,"attentional-mouselab",24,418980,4
"149","mouselab","False","[]","[[5, 5, 5, 5, 4], [8, 5, 7, 8, 7], [4, 2, 4, 0, 8], [6, 5, 4, 2, 4], [5, 6, 6, 5, 4]]","[[2, 2, 0, 2, 2], [0, 2, 2, 2, 0], [2, 2, 2, 2, 0], [0, 2, 2, 2, 0], [2, 2, 2, 2, 2]]","[8, 3, 3, 12, 4]",16,21,0,0.056,0.056,0,"[]",0,"greedy",5,5,5903,0,168,168,15699723120755689472,"attentional-mouselab",25,425922,4
"150","mouselab","False","[21, 21, 20, 20, 23, 23, 24, 24]","[[6, 4, 6, 7, 4], [3, 7, 6, 4, 5], [8, 4, 7, 6, 4], [3, 4, 3, 6, 6], [5, 4, 6, 5, 3]]","[[2, 2, 0, 0, 2], [2, 0, 2, 2, 2], [2, 2, 0, 2, 2], [2, 2, 0, 2, 2], [2, 2, 0, 2, 2]]","[4, 2, 5, 4, 15]",18,22,2,0.058,0.0553333333333333,0.00266666666666667,"[21, 20, 23, 24]",4,"greedy",5,5,13113,8,173,165,480565245065047616,"attentional-mouselab",26,440642,4
"151","mouselab","False","[10, 10, 12, 12, 13, 13, 14, 14]","[[2, 3, 1, 7, 8], [4, 5, 7, 4, 6], [4, 4, 6, 2, 3], [6, 6, 3, 6, 5], [6, 6, 4, 6, 7]]","[[2, 2, 0, 2, 0], [2, 2, 0, 2, 2], [2, 0, 2, 2, 2], [2, 2, 2, 0, 2], [2, 2, 0, 2, 2]]","[4, 5, 14, 6, 1]",16,23,1,0.045,0.0423333333333333,0.00266666666666667,"[10, 12, 13, 14]",4,"random",5,5,7965,8,135,127,6983569758719454208,"attentional-mouselab",27,453488,4
"152","mouselab","False","[7, 7]","[[4, 2, 8, 6, 7], [5, 7, 7, 5, 7], [7, 2, 4, 7, 7], [5, 6, 7, 5, 4], [1, 6, 4, 7, 5]]","[[2, 2, 0, 2, 2], [2, 2, 2, 2, 2], [2, 0, 0, 2, 2], [2, 2, 0, 2, 2], [0, 0, 2, 2, 2]]","[3, 16, 5, 4, 2]",20,24,2,0.064,0.0633333333333333,0.000666666666666667,"[7]",1,"extreme",5,5,5248,2,192,190,12395817909876518912,"attentional-mouselab",28,460406,4
"153","mouselab","False","[]","[[6, 5, 6, 6, 6], [4, 6, 8, 7, 6], [4, 4, 5, 6, 4], [3, 4, 6, 4, 4], [5, 3, 6, 3, 5]]","[[2, 2, 2, 2, 2], [0, 2, 0, 0, 2], [2, 2, 2, 2, 2], [2, 2, 2, 2, 0], [2, 0, 2, 0, 2]]","[1, 11, 7, 7, 4]",14,25,2,0.065,0.065,0,"[]",0,"extreme",5,5,30829,0,195,195,6559639266230565888,"attentional-mouselab",29,494880,4
"154","mouselab","False","[]","[[7, 9, 8, 5, 0], [5, 5, 5, 9, 5], [7, 5, 5, 5, 6], [6, 7, 3, 4, 4], [2, 5, 4, 3, 5]]","[[2, 0, 0, 2, 0], [2, 2, 2, 0, 2], [2, 2, 2, 2, 2], [0, 2, 2, 2, 0], [2, 2, 2, 2, 2]]","[9, 8, 3, 8, 2]",14,26,1,0.067,0.067,0,"[]",0,"extreme",5,5,8833,0,202,202,11476086820147474432,"attentional-mouselab",30,506068,4
"155","mouselab","False","[20, 20, 21, 21, 22, 22, 23, 23]","[[6, 4, 5, 3, 7], [6, 6, 5, 8, 4], [4, 6, 7, 4, 9], [9, 8, 6, 4, 5], [4, 5, 6, 6, 6]]","[[0, 2, 2, 2, 0], [2, 2, 2, 0, 2], [2, 2, 2, 2, 0], [0, 2, 2, 2, 0], [2, 2, 2, 2, 2]]","[7, 3, 2, 3, 15]",20,27,3,0.052,0.0493333333333333,0.00266666666666667,"[20, 21, 22, 23]",4,"greedy",5,5,19668,8,155,147,7368379154448910336,"attentional-mouselab",31,527721,4
"156","mouselab","False","[]","[[7, 4, 5, 6, 6], [6, 3, 5, 6, 7], [4, 4, 6, 7, 2], [5, 3, 4, 8, 3], [2, 6, 4, 2, 6]]","[[2, 2, 2, 2, 0], [0, 2, 2, 0, 2], [2, 2, 0, 2, 2], [2, 2, 0, 2, 2], [2, 2, 2, 0, 2]]","[7, 8, 3, 7, 5]",8,28,0,0.051,0.051,0,"[]",0,"random",5,5,27813,0,154,154,9693819998023112704,"attentional-mouselab",32,557259,4
"157","mouselab","False","[5, 5]","[[3, 3, 5, 3, 8], [6, 6, 8, 8, 8], [9, 3, 3, 7, 4], [4, 5, 7, 6, 4], [10, 9, 4, 6, 5]]","[[0, 2, 2, 2, 2], [2, 0, 2, 2, 2], [0, 2, 2, 2, 2], [2, 2, 2, 2, 0], [0, 0, 2, 2, 2]]","[4, 17, 4, 2, 3]",22,29,0,0.063,0.0623333333333333,0.000666666666666667,"[5]",1,"extreme",5,5,4361,2,188,186,13275982503094126592,"attentional-mouselab",33,562855,4
"158","mouselab","False","[]","[[6, 5, 6, 5, 4], [3, 4, 5, 5, 7], [7, 5, 5, 3, 5], [4, 3, 4, 5, 7], [4, 2, 4, 3, 3]]","[[2, 2, 2, 2, 2], [2, 0, 2, 2, 0], [0, 2, 2, 0, 2], [2, 2, 2, 2, 0], [2, 2, 0, 2, 2]]","[4, 13, 8, 4, 1]",18,30,4,0.059,0.059,0,"[]",0,"greedy",5,5,38952,0,178,178,9157933464947417088,"attentional-mouselab",34,603350,4
"159","mouselab","False","[6, 6]","[[4, 6, 4, 9, 6], [4, 5, 4, 3, 8], [5, 7, 6, 3, 3], [4, 6, 4, 4, 6], [4, 5, 2, 7, 3]]","[[2, 2, 2, 2, 2], [2, 2, 0, 2, 2], [2, 0, 2, 2, 2], [2, 0, 0, 2, 2], [2, 0, 2, 0, 2]]","[1, 17, 5, 4, 3]",22,31,1,0.055,0.0543333333333333,0.000666666666666667,"[6]",1,"greedy",5,5,3149,2,165,163,13486072813456752640,"attentional-mouselab",35,607664,4
"160","mouselab","False","[16, 16]","[[7, 4, 3, 5, 4], [5, 3, 6, 3, 1], [4, 5, 7, 4, 6], [4, 5, 5, 1, 5], [5, 7, 5, 5, 9]]","[[2, 2, 2, 2, 2], [2, 0, 2, 2, 0], [2, 2, 2, 2, 0], [2, 2, 0, 0, 2], [2, 2, 2, 2, 0]]","[7, 8, 2, 12, 1]",18,32,2,0.049,0.0483333333333333,0.000666666666666667,"[16]",1,"extreme",5,5,4281,2,148,146,752947178175213568,"attentional-mouselab",36,613442,4
"161","mouselab","True","[20, 20, 21, 21, 22, 22, 23, 23]","[[6, 5, 7, 6, 2], [4, 5, 4, 5, 3], [4, 3, 5, 7, 5], [7, 4, 4, 3, 4], [4, 7, 5, 2, 7]]","[[2, 2, 0, 0, 0], [2, 2, 2, 2, 2], [0, 0, 2, 2, 2], [2, 2, 2, 2, 2], [2, 2, 2, 2, 0]]","[5, 7, 2, 1, 15]",20,1,1,0.058,0.0553333333333333,0.00266666666666667,"[20, 21, 22, 23]",4,"random",5,5,17959,8,175,167,5181179709557143552,"attentional-mouselab",4,191598,5
"162","mouselab","True","[]","[[5, 3, 4, 6, 6], [3, 8, 4, 5, 5], [4, 7, 5, 7, 7], [5, 4, 5, 4, 9], [5, 7, 6, 6, 5]]","[[2, 2, 2, 2, 2], [2, 2, 2, 2, 2], [2, 2, 2, 0, 2], [2, 2, 0, 2, 0], [2, 0, 2, 0, 0]]","[1, 2, 5, 17, 5]",22,2,4,0.076,0.076,0,"[]",0,"random",5,5,11439,0,229,229,14871878884829849600,"attentional-mouselab",5,204709,5
"163","mouselab","False","[19, 19, 17, 17, 12, 12, 16, 16, 11, 11, 15, 15, 10, 10]","[[10, 6, 2, 6, 4], [5, 6, 4, 5, 4], [6, 6, 4, 6, 8], [5, 7, 5, 3, 5], [4, 4, 3, 6, 5]]","[[2, 2, 0, 2, 2], [2, 2, 2, 0, 2], [2, 2, 2, 2, 0], [2, 2, 2, 0, 2], [2, 2, 0, 2, 0]]","[1, 6, 8, 8, 7]",10,3,4,0.056,0.0513333333333333,0.00466666666666667,"[19, 17, 12, 16, 11, 15, 10]",7,"random",5,5,29471,14,167,153,5042804856389504000,"attentional-mouselab",7,240950,5
"164","mouselab","False","[11, 11, 12, 12, 13, 13, 14, 14]","[[4, 5, 6, 8, 8], [7, 7, 8, 5, 5], [2, 6, 5, 3, 5], [8, 2, 7, 4, 8], [5, 7, 2, 4, 5]]","[[2, 2, 0, 2, 0], [2, 2, 2, 2, 2], [0, 2, 2, 2, 2], [0, 0, 2, 2, 2], [2, 2, 2, 0, 2]]","[4, 2, 13, 3, 8]",18,4,1,0.058,0.0553333333333333,0.00266666666666667,"[11, 12, 13, 14]",4,"extreme",5,5,13207,8,174,166,13168979905861591040,"attentional-mouselab",8,255918,5
"165","mouselab","False","[7, 7]","[[6, 4, 7, 5, 3], [3, 4, 6, 4, 4], [8, 4, 9, 4, 2], [5, 7, 5, 5, 6], [7, 4, 2, 4, 4]]","[[0, 0, 2, 2, 2], [2, 2, 2, 2, 2], [2, 2, 0, 2, 2], [2, 0, 2, 2, 2], [2, 2, 0, 2, 0]]","[7, 10, 9, 3, 1]",16,5,2,0.069,0.0683333333333333,0.000666666666666667,"[7]",1,"random",5,5,9552,2,207,205,4687381671737644032,"attentional-mouselab",9,266630,5
"166","mouselab","False","[21, 21, 22, 22, 23, 23, 24, 24, 16, 16, 15, 15, 19, 19]","[[5, 5, 3, 6, 5], [5, 6, 4, 5, 6], [4, 6, 6, 7, 5], [5, 4, 5, 3, 5], [4, 6, 3, 3, 4]]","[[2, 2, 2, 0, 2], [2, 2, 2, 0, 2], [2, 2, 0, 0, 0], [2, 2, 2, 2, 2], [0, 2, 2, 2, 2]]","[5, 6, 2, 8, 9]",10,6,1,0.053,0.0483333333333333,0.00466666666666667,"[21, 22, 23, 24, 16, 15, 19]",7,"random",5,5,27647,14,159,145,7254012641397054464,"attentional-mouselab",10,295478,5
"167","mouselab","False","[10, 10, 12, 12, 13, 13, 0, 0, 1, 1, 3, 3, 4, 4]","[[6, 3, 6, 2, 2], [4, 3, 7, 3, 4], [5, 7, 4, 3, 2], [3, 7, 6, 7, 6], [5, 6, 5, 5, 0]]","[[2, 2, 0, 2, 2], [2, 2, 0, 2, 2], [2, 0, 2, 2, 0], [2, 0, 0, 2, 2], [2, 2, 2, 2, 2]]","[11, 3, 11, 2, 3]",20,7,0,0.051,0.0463333333333333,0.00466666666666667,"[10, 12, 13, 0, 1, 3, 4]",7,"greedy",5,5,23176,14,154,140,17310546486334464000,"attentional-mouselab",11,321806,5
"168","mouselab","False","[1, 1, 3, 3, 4, 4]","[[5, 5, 7, 6, 3], [1, 5, 5, 9, 3], [7, 8, 7, 6, 2], [2, 5, 4, 3, 6], [7, 4, 5, 3, 8]]","[[0, 2, 0, 2, 2], [2, 2, 2, 2, 0], [2, 2, 2, 2, 2], [2, 2, 2, 2, 2], [0, 2, 2, 0, 0]]","[10, 2, 7, 6, 5]",10,8,2,0.059,0.057,0.002,"[1, 3, 4]",3,"random",5,5,8847,6,178,172,3648136165508381184,"attentional-mouselab",12,331662,5
"169","mouselab","False","[20, 20, 21, 21, 22, 22, 23, 23, 24, 24]","[[5, 5, 6, 6, 6], [5, 9, 6, 6, 4], [5, 8, 5, 7, 6], [2, 6, 7, 3, 4], [2, 5, 4, 5, 7]]","[[0, 2, 2, 0, 2], [2, 2, 2, 0, 2], [2, 0, 2, 2, 2], [0, 0, 2, 2, 2], [2, 2, 2, 2, 2]]","[1, 4, 2, 5, 18]",24,9,4,0.06,0.0566666666666667,0.00333333333333333,"[20, 21, 22, 23, 24]",5,"random",5,5,12136,10,180,170,10396072420401291264,"attentional-mouselab",13,347333,5
"170","mouselab","False","[6, 6, 7, 7, 1, 1, 3, 3]","[[5, 4, 3, 5, 5], [7, 7, 5, 7, 5], [4, 10, 5, 6, 8], [3, 5, 7, 7, 7], [6, 5, 4, 5, 5]]","[[0, 2, 2, 2, 2], [0, 2, 2, 0, 0], [2, 0, 2, 2, 0], [2, 2, 2, 2, 2], [2, 2, 2, 2, 2]]","[8, 14, 3, 3, 2]",20,10,3,0.062,0.0593333333333333,0.00266666666666667,"[6, 7, 1, 3]",4,"extreme",5,5,21503,8,187,179,11453255535483543552,"attentional-mouselab",14,370150,5
"171","mouselab","False","[5, 5, 7, 7, 9, 9, 17, 17]","[[5, 4, 2, 5, 8], [5, 4, 5, 2, 3], [5, 4, 7, 4, 5], [6, 6, 5, 3, 7], [5, 3, 5, 7, 5]]","[[0, 2, 2, 2, 2], [2, 0, 2, 0, 2], [2, 2, 2, 0, 2], [0, 2, 2, 2, 2], [2, 2, 2, 0, 2]]","[1, 14, 2, 11, 2]",26,11,0,0.054,0.0513333333333333,0.00266666666666667,"[5, 7, 9, 17]",4,"random",5,5,11271,8,161,153,10882416973707608064,"attentional-mouselab",15,382462,5
"172","mouselab","False","[22, 22, 23, 23, 24, 24, 20, 20, 12, 12]","[[8, 5, 7, 9, 6], [5, 3, 5, 5, 8], [2, 9, 5, 3, 5], [4, 3, 6, 4, 4], [6, 6, 5, 4, 1]]","[[2, 2, 0, 2, 2], [2, 2, 2, 2, 2], [0, 2, 2, 2, 2], [0, 2, 0, 2, 0], [2, 0, 2, 2, 2]]","[5, 3, 9, 3, 10]",14,12,2,0.054,0.0506666666666667,0.00333333333333333,"[22, 23, 24, 20, 12]",5,"greedy",5,5,16406,10,163,153,10128368857431386112,"attentional-mouselab",16,400158,5
"173","mouselab","False","[10, 10]","[[6, 5, 7, 4, 6], [3, 6, 4, 3, 7], [10, 3, 5, 3, 5], [6, 5, 6, 4, 6], [3, 3, 4, 7, 7]]","[[2, 2, 2, 2, 2], [2, 0, 2, 2, 0], [2, 2, 0, 2, 2], [0, 2, 2, 2, 0], [2, 2, 2, 2, 0]]","[3, 6, 12, 2, 7]",14,13,0,0.063,0.0623333333333333,0.000666666666666667,"[10]",1,"greedy",5,5,6936,2,189,187,468514461533905280,"attentional-mouselab",17,408614,5
"174","mouselab","False","[15, 15, 17, 17, 18, 18, 19, 19]","[[6, 7, 5, 6, 6], [2, 3, 9, 3, 6], [6, 5, 4, 2, 4], [6, 5, 5, 5, 5], [5, 7, 4, 6, 1]]","[[2, 0, 2, 2, 2], [2, 2, 0, 2, 2], [2, 0, 2, 2, 2], [2, 0, 2, 2, 2], [2, 0, 0, 2, 2]]","[4, 3, 7, 12, 4]",14,14,0,0.055,0.0523333333333333,0.00266666666666667,"[15, 17, 18, 19]",4,"greedy",5,5,10496,8,164,156,15305317117221312512,"attentional-mouselab",18,419886,5
"175","mouselab","False","[20, 20, 22, 22]","[[3, 6, 6, 5, 6], [5, 5, 4, 3, 6], [4, 3, 6, 6, 6], [4, 5, 7, 4, 5], [8, 8, 4, 6, 6]]","[[2, 2, 2, 2, 2], [2, 2, 2, 0, 2], [0, 0, 2, 2, 2], [2, 0, 0, 2, 0], [2, 2, 2, 2, 2]]","[2, 3, 8, 8, 9]",14,15,0,0.052,0.0506666666666667,0.00133333333333333,"[20, 22]",2,"random",5,5,10896,4,157,153,3074691455083280384,"attentional-mouselab",19,432646,5
"176","mouselab","False","[10, 10, 14, 14, 13, 13]","[[6, 10, 7, 7, 2], [4, 8, 7, 5, 7], [4, 5, 5, 7, 4], [3, 4, 4, 0, 5], [3, 5, 7, 5, 5]]","[[2, 2, 2, 2, 0], [0, 2, 2, 2, 2], [2, 0, 0, 2, 2], [0, 2, 2, 2, 2], [2, 2, 0, 2, 2]]","[1, 1, 22, 5, 1]",32,16,3,0.057,0.055,0.002,"[10, 14, 13]",3,"random",5,5,6496,6,171,165,8622274945224183808,"attentional-mouselab",20,441166,5
"177","mouselab","False","[10, 10, 13, 13, 14, 14]","[[4, 5, 4, 4, 6], [5, 5, 5, 6, 2], [3, 7, 3, 4, 4], [7, 2, 6, 7, 4], [4, 3, 5, 6, 6]]","[[2, 2, 0, 2, 2], [2, 0, 2, 2, 2], [2, 0, 0, 2, 2], [2, 2, 2, 0, 0], [2, 2, 2, 2, 2]]","[4, 2, 12, 3, 9]",18,17,1,0.049,0.047,0.002,"[10, 13, 14]",3,"random",5,5,7622,6,147,141,11613195393369741312,"attentional-mouselab",21,449718,5
"178","mouselab","False","[]","[[5, 5, 7, 8, 8], [4, 3, 5, 6, 6], [3, 1, 6, 4, 4], [5, 6, 8, 4, 6], [2, 8, 4, 5, 3]]","[[2, 2, 0, 2, 2], [2, 2, 2, 0, 2], [2, 2, 0, 2, 0], [2, 2, 0, 2, 0], [2, 2, 2, 2, 2]]","[2, 4, 11, 11, 2]",20,18,2,0.065,0.065,0,"[]",0,"greedy",5,5,8352,0,196,196,139118853272109728,"attentional-mouselab",22,459086,5
"179","mouselab","False","[1, 1, 20, 20, 22, 22, 24, 24, 2, 2, 3, 3, 4, 4]","[[4, 3, 6, 6, 4], [8, 7, 4, 5, 3], [5, 1, 6, 4, 7], [6, 5, 4, 3, 6], [3, 8, 6, 6, 6]]","[[2, 2, 2, 2, 2], [0, 2, 2, 2, 0], [2, 0, 2, 2, 2], [2, 2, 0, 2, 2], [2, 0, 2, 0, 2]]","[10, 3, 3, 3, 11]",18,19,2,0.056,0.0513333333333333,0.00466666666666667,"[1, 20, 22, 24, 2, 3, 4]",7,"extreme",5,5,25287,14,168,154,5992678152867065856,"attentional-mouselab",23,485526,5
"180","mouselab","False","[15, 15, 18, 18]","[[2, 6, 8, 4, 9], [3, 5, 4, 6, 5], [6, 5, 3, 6, 7], [5, 7, 7, 7, 3], [4, 6, 7, 5, 4]]","[[2, 2, 2, 2, 0], [2, 2, 2, 0, 2], [2, 2, 2, 2, 2], [2, 0, 0, 2, 0], [2, 2, 0, 2, 2]]","[4, 3, 7, 14, 2]",18,20,3,0.061,0.0596666666666667,0.00133333333333333,"[15, 18]",2,"greedy",5,5,9527,4,184,180,8252874993877257216,"attentional-mouselab",24,495966,5
"181","mouselab","False","[]","[[4, 3, 6, 5, 8], [5, 4, 4, 3, 5], [7, 4, 4, 7, 7], [6, 0, 4, 6, 6], [6, 5, 2, 5, 5]]","[[2, 2, 2, 2, 0], [0, 2, 2, 2, 2], [2, 2, 2, 0, 2], [2, 0, 2, 0, 2], [2, 2, 0, 2, 2]]","[7, 2, 8, 8, 5]",10,21,3,0.057,0.057,0,"[]",0,"extreme",5,5,6343,0,170,170,2301843196313152768,"attentional-mouselab",25,504086,5
"182","mouselab","False","[1, 1, 2, 2]","[[3, 6, 7, 7, 5], [1, 8, 8, 4, 2], [7, 5, 2, 6, 3], [5, 6, 5, 6, 6], [7, 7, 6, 4, 8]]","[[2, 2, 2, 2, 2], [0, 0, 0, 0, 0], [2, 2, 2, 2, 2], [2, 2, 2, 2, 2], [2, 0, 2, 2, 2]]","[8, 10, 7, 3, 2]",14,22,2,0.059,0.0576666666666667,0.00133333333333333,"[1, 2]",2,"extreme",5,5,9831,4,177,173,10348853449136779264,"attentional-mouselab",26,515118,5
"183","mouselab","False","[21, 21]","[[6, 4, 3, 3, 4], [8, 4, 4, 5, 5], [6, 5, 4, 4, 5], [5, 7, 6, 7, 6], [5, 6, 3, 7, 5]]","[[2, 0, 2, 2, 2], [0, 2, 2, 2, 2], [2, 2, 2, 0, 2], [2, 0, 0, 2, 2], [2, 2, 0, 2, 2]]","[6, 6, 2, 8, 8]",8,23,1,0.054,0.0533333333333333,0.000666666666666667,"[21]",1,"extreme",5,5,8408,2,162,160,5140917807019779072,"attentional-mouselab",27,524726,5
"184","mouselab","False","[6, 6, 7, 7, 8, 8, 11, 11, 21, 21, 12, 12, 22, 22]","[[5, 5, 4, 7, 4], [4, 5, 5, 4, 2], [4, 5, 3, 6, 6], [4, 2, 7, 6, 8], [5, 2, 3, 6, 2]]","[[2, 2, 2, 0, 2], [0, 2, 2, 2, 0], [2, 2, 2, 0, 2], [2, 2, 2, 0, 2], [2, 2, 2, 0, 2]]","[4, 9, 7, 3, 7]",10,24,3,0.055,0.0503333333333333,0.00466666666666667,"[6, 7, 8, 11, 21, 12, 22]",7,"greedy",5,5,20688,14,166,152,8095123849467757568,"attentional-mouselab",28,546502,5
"185","mouselab","False","[3, 3, 2, 2, 1, 1, 0, 0]","[[5, 2, 4, 4, 8], [8, 3, 5, 6, 4], [5, 8, 6, 7, 5], [5, 5, 6, 4, 9], [4, 5, 5, 6, 7]]","[[2, 2, 2, 2, 0], [2, 2, 2, 2, 2], [2, 2, 2, 2, 0], [0, 2, 2, 0, 0], [2, 2, 2, 2, 0]]","[16, 4, 2, 2, 6]",20,25,4,0.071,0.0683333333333333,0.00266666666666667,"[3, 2, 1, 0]",4,"greedy",5,5,17135,8,214,206,1793341804736031232,"attentional-mouselab",29,564557,5
"186","mouselab","False","[18, 18]","[[4, 3, 1, 6, 8], [4, 4, 5, 3, 3], [7, 4, 3, 8, 7], [5, 3, 2, 5, 4], [3, 6, 7, 7, 6]]","[[2, 2, 0, 2, 0], [2, 2, 2, 2, 2], [2, 2, 0, 0, 2], [2, 2, 0, 2, 2], [2, 2, 0, 2, 2]]","[2, 5, 11, 10, 2]",18,26,3,0.06,0.0593333333333333,0.000666666666666667,"[18]",1,"extreme",5,5,9376,2,179,177,3051830873882448896,"attentional-mouselab",30,574958,5
"187","mouselab","False","[0, 0, 1, 1, 3, 3]","[[5, 5, 5, 6, 5], [6, 4, 7, 7, 7], [6, 2, 3, 5, 7], [4, 5, 5, 6, 6], [3, 6, 5, 5, 3]]","[[2, 2, 0, 2, 0], [2, 2, 0, 2, 2], [2, 0, 0, 2, 0], [2, 2, 2, 2, 2], [2, 2, 2, 2, 2]]","[13, 6, 4, 3, 4]",14,27,3,0.059,0.057,0.002,"[0, 1, 3]",3,"extreme",5,5,11254,6,178,172,12077403417366220800,"attentional-mouselab",31,587374,5
"188","mouselab","False","[8, 8, 9, 9]","[[5, 7, 2, 8, 6], [3, 4, 6, 3, 5], [5, 6, 5, 5, 7], [5, 3, 6, 5, 0], [6, 3, 5, 6, 6]]","[[2, 2, 0, 0, 2], [0, 0, 0, 2, 2], [2, 2, 2, 2, 2], [2, 2, 2, 2, 0], [2, 2, 2, 2, 2]]","[9, 11, 2, 2, 6]",16,28,3,0.054,0.0526666666666667,0.00133333333333333,"[8, 9]",2,"greedy",5,5,29816,4,161,157,1.3771739248251e+19,"attentional-mouselab",32,618590,5
"189","mouselab","False","[12, 12, 10, 10, 13, 13, 14, 14, 4, 4]","[[9, 1, 8, 3, 5], [5, 7, 4, 7, 5], [4, 6, 6, 5, 7], [5, 6, 7, 5, 5], [6, 8, 7, 2, 4]]","[[0, 0, 0, 2, 2], [2, 2, 2, 2, 2], [2, 0, 2, 2, 2], [2, 2, 2, 2, 2], [2, 0, 2, 0, 2]]","[7, 1, 13, 5, 4]",16,29,2,0.067,0.0636666666666667,0.00333333333333333,"[12, 10, 13, 14, 4]",5,"extreme",5,5,17943,10,201,191,10728131733677604864,"attentional-mouselab",33,637549,5
"190","mouselab","False","[0, 0, 1, 1, 2, 2, 4, 4, 19, 19]","[[4, 6, 6, 5, 7], [9, 6, 4, 6, 4], [4, 7, 3, 8, 2], [5, 7, 6, 4, 4], [2, 8, 7, 5, 7]]","[[2, 2, 2, 0, 2], [2, 2, 2, 2, 0], [2, 0, 2, 2, 2], [2, 0, 2, 2, 2], [2, 0, 2, 2, 0]]","[14, 3, 2, 8, 3]",20,30,1,0.065,0.0616666666666667,0.00333333333333333,"[0, 1, 2, 4, 19]",5,"greedy",5,5,14960,10,196,186,11087010664365187072,"attentional-mouselab",34,654486,5
"191","mouselab","False","[5, 5, 7, 7, 8, 8, 23, 23]","[[4, 5, 5, 3, 6], [4, 5, 5, 7, 4], [2, 5, 4, 4, 5], [7, 3, 4, 4, 3], [3, 6, 4, 7, 3]]","[[0, 2, 0, 2, 2], [2, 0, 2, 2, 2], [2, 2, 2, 0, 2], [2, 2, 2, 0, 0], [2, 2, 2, 2, 2]]","[2, 9, 7, 4, 8]",12,31,3,0.056,0.0533333333333333,0.00266666666666667,"[5, 7, 8, 23]",4,"random",5,5,12254,8,169,161,15981468840068503552,"attentional-mouselab",35,667982,5
"192","mouselab","False","[11, 11, 12, 12, 14, 14, 23, 23]","[[7, 8, 6, 5, 9], [5, 4, 3, 6, 0], [0, 4, 4, 8, 4], [6, 6, 6, 7, 7], [1, 4, 7, 4, 7]]","[[2, 2, 0, 2, 2], [2, 2, 2, 2, 0], [0, 2, 2, 0, 2], [2, 2, 2, 2, 2], [0, 0, 2, 2, 2]]","[3, 3, 13, 1, 10]",22,32,3,0.061,0.0583333333333333,0.00266666666666667,"[11, 12, 14, 23]",4,"extreme",5,5,8248,8,184,176,5630293064899066880,"attentional-mouselab",36,677230,5
"193","mouselab","True","[]","[[6, 6, 6, 7, 0], [5, 6, 5, 7, 7], [4, 7, 5, 4, 3], [4, 5, 2, 4, 5], [4, 4, 3, 5, 6]]","[[2, 2, 0, 0, 2], [2, 2, 2, 0, 2], [2, 2, 2, 2, 2], [0, 2, 2, 2, 2], [2, 0, 2, 0, 2]]","[6, 11, 7, 5, 1]",12,1,3,0.057,0.057,0,"[]",0,"random",5,5,20774,0,172,172,6476383470502398976,"attentional-mouselab",4,286781,6
"194","mouselab","True","[8, 8]","[[7, 4, 6, 6, 6], [6, 5, 2, 7, 5], [4, 4, 8, 4, 7], [6, 4, 5, 4, 3], [6, 5, 8, 6, 6]]","[[2, 2, 2, 0, 0], [0, 2, 2, 2, 2], [2, 2, 2, 2, 2], [2, 2, 2, 0, 2], [0, 2, 2, 2, 0]]","[9, 8, 6, 3, 4]",10,2,3,0.057,0.0563333333333333,0.000666666666666667,"[8]",1,"random",5,5,28974,2,170,168,13363268605637697536,"attentional-mouselab",5,324674,6
"195","mouselab","False","[13, 13, 11, 11, 10, 10]","[[3, 2, 7, 3, 3], [5, 8, 3, 3, 6], [4, 4, 7, 4, 5], [5, 6, 6, 7, 5], [8, 3, 6, 6, 2]]","[[2, 2, 2, 0, 2], [2, 2, 2, 0, 2], [2, 2, 2, 2, 0], [2, 0, 2, 2, 2], [2, 0, 0, 2, 2]]","[3, 9, 10, 7, 1]",16,3,3,0.044,0.042,0.002,"[13, 11, 10]",3,"random",5,5,34132,6,131,125,8900505931384223744,"attentional-mouselab",7,371023,6
"196","mouselab","False","[]","[[1, 5, 5, 4, 2], [5, 1, 5, 5, 8], [3, 3, 7, 6, 6], [3, 5, 7, 5, 7], [4, 4, 1, 2, 4]]","[[0, 2, 0, 2, 2], [2, 0, 2, 2, 0], [2, 2, 2, 2, 2], [2, 2, 2, 2, 2], [2, 2, 0, 0, 2]]","[2, 12, 4, 1, 11]",22,4,4,0.058,0.058,0,"[]",0,"extreme",5,5,9109,0,175,175,1.3978845886108e+19,"attentional-mouselab",8,384275,6
"197","mouselab","False","[]","[[3, 4, 2, 7, 5], [2, 2, 6, 5, 4], [6, 3, 6, 4, 3], [2, 4, 6, 6, 4], [5, 5, 5, 6, 7]]","[[0, 2, 0, 2, 2], [0, 2, 2, 0, 2], [2, 2, 2, 2, 0], [2, 2, 2, 2, 2], [2, 2, 0, 2, 2]]","[10, 4, 5, 8, 3]",12,5,0,0.033,0.033,0,"[]",0,"random",5,5,15305,0,99,99,163127602616603328,"attentional-mouselab",9,402720,6
"198","mouselab","False","[]","[[7, 6, 3, 4, 5], [8, 5, 5, 4, 3], [6, 3, 3, 5, 6], [4, 1, 4, 5, 5], [6, 7, 4, 5, 6]]","[[0, 2, 0, 0, 0], [2, 2, 2, 2, 2], [0, 2, 2, 2, 2], [2, 2, 2, 2, 0], [2, 2, 2, 2, 2]]","[4, 5, 1, 9, 11]",16,6,4,0.051,0.051,0,"[]",0,"random",5,5,14791,0,152,152,15406485141479456768,"attentional-mouselab",10,421867,6
"199","mouselab","False","[]","[[3, 6, 5, 5, 8], [4, 3, 3, 3, 3], [8, 4, 1, 4, 7], [7, 3, 6, 5, 3], [6, 2, 6, 6, 5]]","[[2, 0, 2, 2, 0], [2, 2, 0, 2, 2], [0, 2, 2, 0, 2], [0, 2, 2, 2, 2], [2, 2, 2, 2, 2]]","[1, 9, 6, 4, 10]",14,7,2,0.041,0.041,0,"[]",0,"greedy",5,5,29125,0,122,122,5991279848637547520,"attentional-mouselab",11,453751,6
"200","mouselab","False","[5, 5, 6, 6]","[[8, 4, 4, 4, 5], [4, 3, 2, 5, 5], [6, 6, 7, 6, 4], [5, 5, 5, 5, 6], [6, 3, 4, 3, 1]]","[[0, 0, 2, 2, 2], [2, 2, 0, 0, 2], [2, 2, 2, 2, 2], [2, 0, 2, 2, 2], [2, 2, 2, 2, 0]]","[3, 11, 3, 4, 9]",16,8,3,0.044,0.0426666666666667,0.00133333333333333,"[5, 6]",2,"extreme",5,5,23544,4,132,128,7897889398717275136,"attentional-mouselab",12,479633,6
"201","mouselab","False","[]","[[7, 6, 6, 7, 5], [2, 1, 5, 7, 5], [5, 7, 5, 4, 4], [6, 9, 6, 2, 6], [4, 7, 8, 6, 6]]","[[0, 2, 2, 0, 2], [2, 2, 2, 2, 2], [2, 0, 2, 2, 2], [2, 0, 2, 2, 2], [2, 0, 0, 2, 2]]","[7, 3, 12, 1, 7]",16,9,1,0.062,0.062,0,"[]",0,"greedy",5,5,7768,0,187,187,5739726591455017984,"attentional-mouselab",13,489875,6
"202","mouselab","False","[]","[[6, 2, 6, 2, 7], [6, 6, 3, 9, 7], [10, 5, 3, 5, 8], [6, 5, 2, 6, 6], [4, 6, 4, 6, 5]]","[[2, 2, 2, 0, 0], [2, 2, 2, 2, 0], [0, 2, 2, 2, 2], [2, 2, 2, 2, 0], [2, 2, 2, 2, 0]]","[1, 9, 9, 5, 6]",12,10,0,0.068,0.068,0,"[]",0,"greedy",5,5,6211,0,204,204,1809347408806052096,"attentional-mouselab",14,498211,6
"203","mouselab","False","[]","[[0, 7, 6, 6, 5], [5, 6, 9, 4, 5], [5, 4, 6, 3, 7], [4, 4, 5, 6, 4], [6, 7, 7, 9, 4]]","[[2, 2, 2, 2, 2], [2, 0, 0, 2, 2], [0, 2, 0, 2, 2], [2, 2, 2, 0, 2], [2, 2, 0, 2, 2]]","[2, 13, 9, 3, 3]",20,11,2,0.073,0.073,0,"[]",0,"greedy",5,5,6903,0,219,219,2428646324639654912,"attentional-mouselab",15,507368,6
"204","mouselab","False","[]","[[5, 3, 7, 6, 5], [6, 8, 6, 7, 3], [5, 6, 6, 6, 2], [4, 2, 2, 7, 5], [5, 1, 4, 4, 8]]","[[2, 2, 2, 2, 2], [2, 2, 2, 2, 0], [0, 2, 2, 2, 0], [2, 2, 0, 2, 2], [2, 0, 2, 2, 0]]","[2, 11, 3, 3, 11]",20,12,4,0.051,0.051,0,"[]",0,"extreme",5,5,11612,0,152,152,9661122162423582720,"attentional-mouselab",16,520908,6
"205","mouselab","False","[]","[[6, 5, 6, 6, 6], [5, 3, 6, 5, 7], [4, 4, 8, 7, 6], [8, 4, 6, 3, 6], [5, 7, 5, 5, 5]]","[[2, 2, 2, 2, 0], [2, 2, 2, 0, 0], [2, 2, 0, 2, 0], [2, 2, 2, 2, 0], [2, 2, 2, 2, 2]]","[2, 3, 1, 17, 7]",24,13,4,0.059,0.059,0,"[]",0,"greedy",5,5,9366,0,176,176,16007761076229511168,"attentional-mouselab",17,533948,6
"206","mouselab","False","[]","[[6, 8, 4, 3, 8], [4, 4, 6, 5, 4], [7, 3, 4, 9, 6], [4, 4, 4, 2, 3], [5, 5, 4, 4, 8]]","[[2, 2, 2, 2, 0], [2, 2, 0, 2, 2], [2, 2, 2, 0, 0], [2, 2, 2, 0, 2], [2, 2, 2, 2, 0]]","[2, 5, 16, 4, 3]",20,14,3,0.065,0.065,0,"[]",0,"greedy",5,5,9232,0,195,195,216269769303736000,"attentional-mouselab",18,545496,6
"207","mouselab","False","[8, 8]","[[7, 6, 5, 4, 4], [1, 5, 7, 5, 5], [4, 5, 5, 8, 6], [5, 4, 5, 4, 8], [7, 5, 8, 7, 5]]","[[2, 2, 2, 0, 2], [0, 2, 2, 2, 2], [2, 2, 2, 0, 2], [2, 2, 2, 2, 0], [2, 2, 0, 0, 2]]","[7, 13, 3, 4, 3]",16,15,3,0.051,0.0503333333333333,0.000666666666666667,"[8]",1,"extreme",5,5,16386,2,154,152,14069912117929912320,"attentional-mouselab",19,566741,6
"208","mouselab","False","[]","[[4, 2, 3, 4, 3], [5, 6, 5, 6, 7], [8, 5, 7, 5, 6], [7, 4, 3, 6, 4], [4, 7, 4, 4, 9]]","[[2, 0, 2, 0, 2], [2, 2, 2, 2, 2], [0, 2, 2, 2, 2], [0, 2, 2, 2, 0], [2, 2, 2, 2, 0]]","[1, 7, 7, 12, 3]",16,16,0,0.064,0.064,0,"[]",0,"extreme",5,5,10454,0,191,191,18209799147094614016,"attentional-mouselab",20,579654,6
"209","mouselab","False","[6, 6, 8, 8, 7, 7, 9, 9]","[[5, 7, 4, 4, 6], [4, 4, 3, 2, 6], [5, 7, 4, 6, 4], [4, 5, 7, 3, 5], [7, 5, 7, 7, 6]]","[[2, 0, 2, 2, 2], [2, 2, 2, 2, 2], [2, 0, 2, 2, 2], [2, 0, 0, 2, 2], [2, 0, 2, 2, 0]]","[7, 10, 1, 5, 7]",12,17,4,0.058,0.0553333333333333,0.00266666666666667,"[6, 8, 7, 9]",4,"greedy",5,5,36384,8,173,165,13012320024791633920,"attentional-mouselab",21,618807,6
"210","mouselab","False","[22, 22, 21, 21, 20, 20]","[[6, 3, 5, 5, 5], [4, 5, 8, 6, 6], [4, 5, 5, 6, 6], [6, 5, 5, 4, 7], [10, 4, 5, 3, 4]]","[[2, 2, 2, 0, 2], [2, 2, 0, 0, 2], [2, 2, 0, 2, 2], [0, 2, 0, 2, 2], [2, 2, 2, 2, 2]]","[3, 5, 5, 1, 16]",20,18,0,0.075,0.073,0.002,"[22, 21, 20]",3,"random",5,5,17978,6,224,218,251940072462506240,"attentional-mouselab",22,643297,6
"211","mouselab","False","[8, 8]","[[5, 6, 6, 6, 7], [5, 5, 6, 6, 6], [8, 3, 7, 4, 6], [7, 4, 4, 6, 1], [4, 6, 5, 4, 3]]","[[2, 2, 2, 2, 2], [2, 2, 2, 2, 2], [0, 2, 0, 0, 2], [0, 2, 2, 0, 2], [2, 2, 2, 2, 0]]","[3, 9, 4, 8, 6]",10,19,3,0.053,0.0523333333333333,0.000666666666666667,"[8]",1,"random",5,5,17790,2,160,158,5311267564610544640,"attentional-mouselab",23,664104,6
"212","mouselab","False","[24, 24]","[[4, 4, 2, 7, 7], [6, 7, 5, 6, 2], [3, 5, 2, 5, 7], [6, 7, 1, 4, 7], [9, 6, 5, 4, 7]]","[[2, 0, 2, 2, 0], [2, 0, 2, 2, 2], [2, 2, 2, 2, 0], [0, 2, 2, 2, 0], [2, 2, 2, 2, 2]]","[6, 3, 9, 3, 9]",12,20,4,0.065,0.0643333333333333,0.000666666666666667,"[24]",1,"greedy",5,5,8675,2,195,193,4056479221600437248,"attentional-mouselab",24,676153,6
"213","mouselab","False","[]","[[4, 3, 3, 5, 3], [3, 5, 7, 5, 3], [8, 7, 4, 6, 4], [4, 6, 5, 3, 5], [4, 6, 6, 3, 5]]","[[2, 2, 0, 2, 2], [2, 2, 2, 2, 2], [0, 2, 2, 0, 2], [2, 0, 0, 2, 2], [2, 0, 2, 2, 2]]","[2, 6, 11, 7, 4]",12,21,0,0.053,0.053,0,"[]",0,"random",5,5,11531,0,158,158,704178055709932544,"attentional-mouselab",25,690773,6
"214","mouselab","False","[17, 17, 18, 18, 19, 19, 16, 16, 15, 15]","[[7, 7, 6, 4, 3], [2, 5, 7, 4, 4], [5, 4, 3, 4, 6], [6, 4, 5, 4, 6], [3, 5, 3, 4, 9]]","[[2, 2, 0, 2, 2], [2, 2, 0, 2, 2], [2, 2, 2, 0, 2], [2, 2, 2, 2, 2], [0, 0, 2, 2, 0]]","[3, 1, 5, 16, 5]",20,22,4,0.061,0.0576666666666667,0.00333333333333333,"[17, 18, 19, 16, 15]",5,"random",5,5,22446,10,184,174,9275734286842230784,"attentional-mouselab",26,717599,6
"215","mouselab","False","[21, 21, 23, 23]","[[5, 3, 5, 7, 3], [1, 7, 6, 5, 3], [6, 5, 3, 8, 3], [6, 7, 3, 6, 3], [5, 3, 7, 5, 4]]","[[2, 0, 2, 2, 0], [0, 2, 2, 2, 2], [2, 2, 2, 0, 0], [2, 2, 0, 2, 2], [2, 2, 2, 2, 2]]","[9, 5, 3, 3, 10]",14,23,3,0.06,0.0586666666666667,0.00133333333333333,"[21, 23]",2,"extreme",5,5,22913,4,180,176,13047903985072932864,"attentional-mouselab",27,744837,6
"216","mouselab","False","[]","[[7, 2, 6, 4, 5], [4, 3, 2, 6, 4], [5, 4, 6, 4, 7], [6, 2, 4, 6, 7], [7, 4, 3, 6, 4]]","[[0, 2, 2, 0, 2], [2, 2, 2, 2, 2], [2, 2, 0, 0, 2], [2, 0, 2, 2, 2], [2, 2, 0, 2, 2]]","[17, 2, 5, 4, 2]",22,24,0,0.063,0.063,0,"[]",0,"random",5,5,5511,0,190,190,1931867944828251136,"attentional-mouselab",28,755294,6
"217","mouselab","False","[]","[[7, 2, 3, 6, 7], [5, 5, 3, 3, 4], [5, 6, 6, 6, 4], [3, 1, 7, 6, 5], [5, 6, 6, 4, 6]]","[[0, 2, 2, 2, 2], [2, 2, 2, 2, 0], [2, 2, 0, 2, 2], [2, 0, 0, 2, 2], [2, 2, 0, 2, 2]]","[4, 10, 8, 6, 2]",12,25,2,0.048,0.048,0,"[]",0,"greedy",5,5,13106,0,144,144,5140998666031529984,"attentional-mouselab",29,771015,6
"218","mouselab","False","[]","[[8, 4, 7, 3, 4], [5, 2, 3, 5, 7], [6, 5, 6, 3, 6], [3, 5, 4, 5, 5], [6, 5, 6, 7, 6]]","[[0, 2, 2, 2, 2], [2, 2, 2, 2, 0], [2, 2, 2, 2, 0], [2, 0, 2, 2, 2], [2, 2, 0, 2, 0]]","[17, 3, 1, 6, 3]",22,26,0,0.064,0.064,0,"[]",0,"greedy",5,5,4323,0,193,193,8080042474079697920,"attentional-mouselab",30,778052,6
"219","mouselab","False","[]","[[2, 5, 9, 4, 7], [6, 5, 5, 5, 4], [7, 3, 3, 5, 6], [7, 8, 3, 3, 4], [3, 3, 7, 5, 2]]","[[0, 2, 0, 2, 2], [2, 2, 0, 2, 2], [2, 2, 0, 2, 2], [0, 0, 2, 2, 2], [2, 2, 2, 2, 2]]","[9, 9, 9, 2, 1]",18,27,2,0.055,0.055,0,"[]",0,"extreme",5,5,7815,0,166,166,4543709058698954240,"attentional-mouselab",31,787951,6
"220","mouselab","False","[]","[[4, 8, 5, 8, 5], [5, 5, 7, 3, 5], [7, 9, 5, 6, 5], [5, 6, 7, 1, 1], [9, 5, 6, 5, 3]]","[[2, 2, 2, 2, 2], [2, 0, 2, 2, 2], [0, 0, 2, 2, 2], [2, 0, 2, 2, 0], [0, 2, 2, 2, 2]]","[6, 1, 2, 15, 6]",18,28,1,0.064,0.064,0,"[]",0,"extreme",5,5,6463,0,191,191,9986981472187852800,"attentional-mouselab",32,797255,6
"221","mouselab","False","[2, 2, 0, 0]","[[6, 3, 3, 7, 1], [6, 3, 5, 10, 4], [4, 6, 7, 3, 5], [7, 3, 8, 4, 3], [4, 7, 5, 5, 4]]","[[2, 2, 2, 2, 0], [0, 2, 2, 0, 2], [2, 2, 0, 2, 2], [2, 2, 0, 2, 0], [2, 2, 2, 2, 2]]","[9, 4, 8, 8, 1]",14,29,0,0.057,0.0556666666666667,0.00133333333333333,"[2, 0]",2,"extreme",5,5,24432,4,170,166,16172827492960667648,"attentional-mouselab",33,825706,6
"222","mouselab","False","[]","[[4, 6, 9, 6, 4], [6, 6, 9, 2, 3], [1, 5, 4, 8, 3], [4, 6, 3, 2, 5], [4, 5, 6, 8, 5]]","[[2, 2, 0, 2, 2], [2, 2, 0, 0, 0], [0, 2, 2, 2, 0], [2, 2, 2, 2, 2], [2, 2, 2, 2, 2]]","[7, 4, 7, 6, 6]",4,30,2,0.06,0.06,0,"[]",0,"extreme",5,5,15720,0,181,181,1402764187508378112,"attentional-mouselab",34,844529,6
"223","mouselab","False","[15, 15, 9, 9, 19, 19, 8, 8, 18, 18]","[[5, 7, 3, 3, 4], [6, 4, 5, 2, 6], [5, 6, 4, 4, 5], [2, 5, 2, 7, 3], [4, 6, 4, 5, 8]]","[[0, 0, 2, 2, 2], [0, 2, 2, 2, 2], [2, 2, 0, 2, 2], [2, 2, 2, 2, 2], [2, 2, 0, 0, 2]]","[7, 9, 4, 9, 1]",14,31,4,0.046,0.0426666666666667,0.00333333333333333,"[15, 9, 19, 8, 18]",5,"random",5,5,42309,10,137,127,5018400946479903744,"attentional-mouselab",35,889010,6
"224","mouselab","False","[]","[[5, 7, 5, 5, 2], [3, 4, 7, 5, 5], [7, 6, 1, 2, 4], [5, 2, 8, 5, 4], [8, 4, 6, 6, 7]]","[[2, 2, 0, 0, 2], [2, 2, 0, 2, 2], [2, 0, 2, 2, 2], [0, 2, 2, 2, 2], [2, 2, 0, 2, 2]]","[11, 3, 8, 5, 3]",14,32,2,0.047,0.047,0,"[]",0,"random",5,5,26326,0,142,142,18266925074754091008,"attentional-mouselab",36,917316,6
"225","mouselab","True","[0, 0, 1, 1, 4, 4, 15, 15, 16, 16, 17]","[[6, 2, 6, 6, 4], [2, 7, 5, 5, 6], [6, 5, 4, 1, 4], [7, 4, 5, 4, 7], [6, 3, 7, 8, 7]]","[[2, 2, 0, 0, 2], [2, 2, 2, 0, 0], [2, 0, 2, 2, 2], [2, 2, 2, 2, 2], [2, 2, 2, 2, 0]]","[13, 5, 4, 7, 1]",16,1,0,0.056,0.0523333333333333,0.00366666666666667,"[0, 1, 4, 15, 16]",5,"random",5,5,27313,11,167,156,14038305497322104832,"attentional-mouselab",4,206621,7
"226","mouselab","True","[12, 12, 11, 11, 10, 10, 13, 13, 14, 14]","[[7, 6, 5, 7, 7], [5, 4, 5, 2, 3], [3, 5, 6, 6, 6], [7, 4, 2, 4, 5], [6, 5, 4, 3, 6]]","[[2, 2, 2, 2, 2], [2, 2, 0, 2, 2], [2, 2, 2, 2, 2], [2, 0, 0, 2, 2], [2, 2, 0, 0, 0]]","[3, 5, 12, 1, 9]",18,2,2,0.05,0.0466666666666667,0.00333333333333333,"[12, 11, 10, 13, 14]",5,"random",5,5,17829,10,150,140,1.0459669288391e+19,"attentional-mouselab",5,227390,7
"227","mouselab","False","[2, 2]","[[8, 5, 7, 6, 2], [7, 3, 4, 3, 5], [4, 6, 7, 4, 5], [5, 4, 7, 3, 7], [5, 3, 8, 4, 3]]","[[0, 2, 2, 2, 0], [2, 2, 2, 2, 2], [2, 2, 2, 2, 2], [2, 0, 2, 0, 2], [0, 2, 0, 2, 2]]","[1, 7, 4, 13, 5]",16,3,2,0.065,0.0643333333333333,0.000666666666666667,"[2]",1,"extreme",5,5,6773,2,194,192,5021314054390425600,"attentional-mouselab",7,241233,7
"228","mouselab","False","[]","[[5, 6, 5, 4, 6], [5, 5, 4, 6, 2], [5, 5, 4, 7, 6], [7, 3, 7, 3, 5], [6, 6, 4, 4, 5]]","[[2, 2, 2, 2, 2], [2, 0, 2, 2, 2], [0, 2, 2, 2, 2], [0, 2, 2, 2, 2], [2, 0, 0, 0, 2]]","[7, 6, 8, 6, 3]",6,4,0,0.055,0.055,0,"[]",0,"random",5,5,7912,0,165,165,4577406570647397376,"attentional-mouselab",8,251634,7
"229","mouselab","False","[]","[[5, 6, 6, 6, 7], [5, 5, 6, 6, 6], [8, 3, 7, 4, 6], [7, 4, 4, 6, 1], [4, 6, 5, 4, 3]]","[[2, 2, 2, 2, 2], [2, 2, 2, 2, 2], [0, 2, 0, 2, 2], [0, 2, 2, 0, 0], [2, 2, 2, 2, 0]]","[4, 1, 6, 8, 11]",14,5,0,0.058,0.058,0,"[]",0,"extreme",5,5,2770,0,173,173,5311267564610544640,"attentional-mouselab",9,257535,7
"230","mouselab","False","[]","[[5, 6, 4, 7, 5], [7, 5, 4, 4, 2], [7, 4, 5, 3, 5], [5, 6, 4, 5, 10], [5, 3, 6, 3, 3]]","[[2, 0, 2, 0, 2], [2, 2, 2, 2, 0], [2, 2, 2, 2, 0], [2, 2, 2, 2, 0], [2, 2, 2, 0, 2]]","[4, 3, 4, 13, 6]",14,6,4,0.065,0.065,0,"[]",0,"extreme",5,5,1787,0,194,194,12925521583334830080,"attentional-mouselab",10,262065,7
"231","mouselab","False","[0, 0]","[[5, 3, 1, 7, 7], [6, 4, 4, 6, 3], [4, 2, 4, 4, 4], [5, 6, 7, 4, 5], [7, 4, 6, 8, 4]]","[[2, 2, 0, 2, 2], [0, 2, 2, 2, 2], [2, 2, 0, 2, 0], [2, 2, 2, 2, 2], [2, 0, 0, 2, 2]]","[10, 5, 4, 8, 3]",12,7,0,0.052,0.0513333333333333,0.000666666666666667,"[0]",1,"random",5,5,7289,2,157,155,14723818254515820544,"attentional-mouselab",11,271116,7
"232","mouselab","False","[]","[[8, 0, 8, 5, 3], [9, 3, 7, 8, 5], [7, 3, 5, 9, 6], [4, 6, 4, 4, 5], [6, 4, 3, 6, 5]]","[[2, 2, 2, 2, 2], [2, 2, 0, 2, 0], [2, 2, 0, 0, 0], [2, 2, 2, 2, 2], [0, 2, 2, 2, 2]]","[4, 11, 7, 3, 5]",12,8,3,0.071,0.071,0,"[]",0,"random",5,5,2280,0,213,213,13331428949323696128,"attentional-mouselab",12,275714,7
"233","mouselab","False","[]","[[5, 6, 2, 4, 3], [5, 6, 5, 6, 3], [7, 3, 4, 4, 3], [7, 3, 5, 6, 5], [4, 6, 4, 5, 5]]","[[2, 2, 2, 0, 2], [2, 2, 0, 2, 2], [2, 2, 2, 2, 0], [2, 2, 2, 0, 0], [0, 2, 2, 2, 2]]","[5, 9, 3, 6, 7]",8,9,3,0.052,0.052,0,"[]",0,"random",5,5,2233,0,157,157,8542130017440407552,"attentional-mouselab",13,279284,7
"234","mouselab","False","[]","[[6, 6, 4, 5, 7], [3, 5, 4, 7, 8], [5, 6, 7, 8, 3], [4, 7, 3, 2, 5], [5, 0, 7, 7, 6]]","[[2, 2, 2, 0, 0], [0, 2, 2, 2, 0], [2, 2, 2, 0, 2], [0, 2, 2, 2, 2], [2, 2, 2, 2, 2]]","[11, 3, 11, 4, 1]",20,10,4,0.053,0.053,0,"[]",0,"greedy",5,5,1494,0,160,160,16861388886506741760,"attentional-mouselab",14,282773,7
"235","mouselab","False","[]","[[4, 4, 5, 4, 7], [6, 5, 5, 3, 5], [3, 5, 4, 4, 5], [7, 6, 5, 4, 9], [7, 6, 5, 4, 8]]","[[2, 2, 0, 0, 2], [2, 2, 0, 2, 2], [2, 0, 2, 2, 2], [2, 2, 2, 2, 0], [2, 0, 2, 2, 2]]","[9, 3, 9, 1, 8]",16,11,4,0.065,0.065,0,"[]",0,"random",5,5,4043,0,196,196,7557381217494117376,"attentional-mouselab",15,289317,7
"236","mouselab","False","[]","[[4, 3, 4, 6, 5], [1, 5, 7, 2, 7], [4, 6, 6, 5, 4], [8, 5, 4, 8, 5], [6, 4, 6, 8, 7]]","[[2, 2, 0, 2, 2], [0, 2, 2, 2, 2], [2, 0, 2, 2, 2], [0, 2, 2, 0, 2], [2, 2, 2, 0, 2]]","[12, 5, 2, 10, 1]",20,12,3,0.06,0.06,0,"[]",0,"extreme",5,5,1965,0,180,180,1715777568430563072,"attentional-mouselab",16,294005,7
"237","mouselab","False","[]","[[10, 5, 9, 5, 8], [4, 6, 4, 4, 3], [3, 4, 5, 7, 4], [6, 7, 8, 7, 7], [3, 7, 5, 5, 4]]","[[0, 2, 2, 2, 0], [0, 2, 2, 2, 2], [2, 2, 2, 2, 2], [2, 2, 2, 2, 2], [0, 0, 2, 0, 2]]","[2, 7, 5, 14, 2]",18,13,0,0.051,0.051,0,"[]",0,"random",5,5,1858,0,153,153,14602578550221666304,"attentional-mouselab",17,298811,7
"238","mouselab","False","[]","[[5, 5, 8, 5, 7], [3, 6, 7, 3, 2], [3, 5, 5, 6, 6], [6, 7, 5, 4, 4], [7, 6, 6, 4, 8]]","[[0, 2, 0, 2, 2], [2, 2, 0, 2, 2], [0, 2, 0, 2, 2], [2, 2, 2, 2, 2], [0, 2, 2, 2, 2]]","[5, 3, 14, 6, 2]",16,14,2,0.058,0.058,0,"[]",0,"greedy",5,5,1807,0,173,173,10796346333059569664,"attentional-mouselab",18,302453,7
"239","mouselab","False","[]","[[6, 4, 3, 4, 4], [3, 7, 6, 5, 4], [4, 7, 6, 2, 6], [5, 7, 6, 6, 3], [7, 10, 7, 6, 4]]","[[2, 2, 0, 2, 2], [0, 2, 2, 2, 2], [2, 0, 2, 0, 2], [2, 2, 2, 2, 0], [2, 0, 2, 2, 2]]","[7, 5, 5, 11, 2]",12,15,1,0.065,0.065,0,"[]",0,"extreme",5,5,1620,0,195,195,1443085641329836288,"attentional-mouselab",19,309644,7
"240","mouselab","False","[]","[[3, 2, 5, 3, 6], [4, 1, 8, 4, 4], [4, 6, 4, 4, 4], [7, 5, 7, 3, 5], [4, 4, 5, 7, 6]]","[[0, 0, 2, 2, 2], [2, 0, 0, 2, 2], [2, 2, 0, 2, 2], [2, 0, 2, 2, 2], [2, 2, 2, 2, 2]]","[2, 9, 5, 12, 2]",18,16,2,0.065,0.065,0,"[]",0,"extreme",5,5,1309,0,196,196,10679498637987278848,"attentional-mouselab",20,312804,7
"241","mouselab","False","[]","[[5, 8, 5, 4, 6], [6, 6, 3, 5, 3], [7, 2, 3, 4, 7], [2, 4, 5, 4, 5], [2, 4, 4, 2, 7]]","[[2, 2, 0, 2, 2], [2, 0, 2, 0, 2], [2, 2, 2, 0, 2], [2, 2, 2, 2, 2], [0, 2, 2, 2, 0]]","[2, 3, 3, 21, 1]",30,17,4,0.051,0.051,0,"[]",0,"random",5,5,2707,0,154,154,5649055456679207936,"attentional-mouselab",21,316774,7
"242","mouselab","False","[]","[[5, 1, 5, 6, 4], [4, 5, 3, 8, 4], [7, 2, 6, 4, 5], [4, 4, 3, 4, 7], [5, 4, 6, 3, 6]]","[[2, 0, 2, 2, 2], [2, 2, 2, 0, 2], [2, 0, 2, 2, 2], [2, 2, 0, 2, 0], [2, 2, 2, 0, 2]]","[3, 4, 9, 10, 4]",14,18,3,0.046,0.046,0,"[]",0,"extreme",5,5,2491,0,138,138,12085984928568938496,"attentional-mouselab",22,320556,7
"243","mouselab","False","[]","[[4, 6, 4, 5, 5], [5, 4, 1, 10, 6], [3, 5, 5, 5, 4], [5, 4, 8, 4, 4], [3, 0, 5, 4, 6]]","[[2, 2, 2, 0, 2], [2, 2, 2, 0, 2], [2, 2, 2, 2, 2], [2, 0, 0, 2, 2], [0, 0, 2, 2, 2]]","[3, 7, 4, 10, 6]",10,19,3,0.056,0.056,0,"[]",0,"greedy",5,5,1570,0,169,169,5748119704226750464,"attentional-mouselab",23,324221,7
"244","mouselab","False","[]","[[9, 9, 1, 0, 5], [3, 6, 8, 5, 4], [6, 3, 5, 5, 7], [4, 1, 5, 6, 4], [5, 5, 8, 2, 6]]","[[0, 2, 0, 0, 2], [0, 2, 0, 2, 2], [2, 2, 2, 2, 2], [2, 2, 2, 2, 2], [2, 2, 0, 2, 2]]","[6, 6, 15, 1, 2]",18,20,0,0.059,0.059,0,"[]",0,"greedy",5,5,1820,0,176,176,7062910679790771200,"attentional-mouselab",24,327668,7
"245","mouselab","False","[]","[[6, 3, 4, 5, 4], [6, 6, 5, 4, 6], [2, 2, 6, 9, 5], [6, 5, 5, 7, 4], [7, 5, 4, 6, 9]]","[[2, 2, 2, 2, 2], [0, 2, 2, 2, 0], [2, 2, 2, 0, 2], [2, 2, 0, 0, 2], [2, 2, 2, 2, 0]]","[9, 5, 10, 4, 2]",14,21,3,0.065,0.065,0,"[]",0,"greedy",5,5,2075,0,195,195,8586858439757218816,"attentional-mouselab",25,331541,7
"246","mouselab","False","[]","[[3, 2, 1, 4, 5], [2, 8, 8, 4, 5], [1, 4, 4, 9, 7], [6, 7, 5, 4, 4], [6, 3, 5, 4, 8]]","[[2, 2, 0, 2, 2], [2, 2, 0, 2, 2], [0, 2, 2, 2, 0], [2, 2, 2, 2, 0], [2, 2, 2, 2, 0]]","[5, 4, 2, 12, 7]",14,22,4,0.054,0.054,0,"[]",0,"greedy",5,5,2095,0,163,163,9191659770910776320,"attentional-mouselab",26,335867,7
"247","mouselab","False","[]","[[5, 2, 4, 4, 3], [4, 3, 2, 5, 7], [4, 6, 4, 5, 3], [5, 6, 5, 6, 5], [3, 4, 4, 4, 5]]","[[2, 0, 2, 2, 0], [0, 2, 2, 2, 2], [2, 2, 0, 2, 2], [2, 2, 2, 0, 2], [0, 2, 2, 2, 2]]","[2, 4, 3, 6, 15]",18,23,3,0.046,0.046,0,"[]",0,"greedy",5,5,2866,0,139,139,7519620904768926720,"attentional-mouselab",27,339772,7
"248","mouselab","False","[]","[[6, 7, 5, 10, 5], [3, 6, 5, 5, 9], [8, 3, 5, 5, 4], [6, 7, 5, 3, 1], [7, 6, 5, 6, 4]]","[[2, 2, 2, 0, 2], [2, 2, 2, 2, 2], [0, 2, 0, 2, 2], [2, 0, 2, 0, 2], [2, 2, 2, 0, 2]]","[6, 10, 3, 6, 5]",8,24,3,0.058,0.058,0,"[]",0,"greedy",5,5,1419,0,173,173,1128588237226646784,"attentional-mouselab",28,342490,7
"249","mouselab","False","[22, 22]","[[5, 4, 2, 7, 6], [5, 4, 6, 3, 5], [3, 2, 1, 4, 6], [4, 3, 8, 6, 5], [4, 7, 7, 3, 4]]","[[2, 2, 2, 2, 0], [2, 2, 2, 0, 2], [2, 2, 2, 2, 0], [2, 2, 0, 0, 2], [2, 0, 2, 2, 2]]","[5, 7, 1, 4, 13]",16,25,2,0.059,0.0583333333333333,0.000666666666666667,"[22]",1,"greedy",5,5,4681,2,176,174,750506714214254464,"attentional-mouselab",29,348300,7
"250","mouselab","False","[]","[[7, 5, 6, 6, 4], [5, 5, 6, 4, 4], [8, 3, 3, 5, 3], [5, 5, 5, 1, 8], [2, 2, 9, 4, 5]]","[[2, 2, 2, 2, 2], [0, 2, 2, 2, 2], [0, 2, 2, 2, 2], [0, 2, 2, 0, 2], [2, 2, 0, 0, 2]]","[14, 2, 5, 1, 8]",20,26,0,0.056,0.056,0,"[]",0,"extreme",5,5,2510,0,169,169,14851912560667498496,"attentional-mouselab",30,352187,7
"251","mouselab","False","[]","[[5, 5, 5, 4, 7], [6, 5, 6, 3, 8], [4, 5, 6, 4, 2], [5, 5, 3, 2, 6], [4, 6, 4, 8, 3]]","[[0, 2, 2, 0, 0], [2, 0, 0, 2, 0], [2, 2, 2, 2, 2], [2, 2, 2, 2, 2], [2, 2, 2, 2, 2]]","[2, 6, 2, 5, 15]",18,27,4,0.047,0.047,0,"[]",0,"random",5,5,1470,0,141,141,14064732548263342080,"attentional-mouselab",31,355058,7
"252","mouselab","False","[]","[[6, 5, 5, 3, 3], [4, 6, 7, 7, 1], [6, 3, 3, 8, 4], [2, 4, 5, 6, 6], [5, 7, 9, 3, 4]]","[[2, 2, 2, 2, 2], [2, 0, 2, 2, 0], [2, 2, 0, 0, 2], [2, 2, 2, 2, 2], [2, 2, 0, 0, 2]]","[1, 9, 1, 5, 14]",22,28,2,0.074,0.074,0,"[]",0,"extreme",5,5,1528,0,222,222,9373964324042209280,"attentional-mouselab",32,358652,7
"253","mouselab","False","[]","[[3, 8, 8, 4, 3], [3, 7, 6, 5, 4], [3, 4, 7, 3, 5], [4, 6, 6, 5, 6], [9, 4, 4, 7, 8]]","[[2, 2, 0, 2, 2], [0, 2, 0, 2, 2], [2, 2, 0, 0, 2], [2, 2, 0, 2, 2], [2, 2, 2, 2, 2]]","[3, 3, 11, 3, 10]",18,29,2,0.059,0.059,0,"[]",0,"greedy",5,5,1668,0,177,177,15028094095827372032,"attentional-mouselab",33,362043,7
"254","mouselab","False","[]","[[6, 5, 3, 3, 8], [5, 3, 4, 8, 6], [3, 6, 6, 7, 9], [2, 2, 6, 5, 3], [4, 2, 4, 6, 5]]","[[2, 2, 2, 2, 0], [2, 0, 2, 2, 2], [0, 0, 2, 2, 2], [2, 2, 2, 0, 2], [0, 2, 2, 2, 2]]","[3, 4, 7, 9, 7]",10,30,4,0.058,0.058,0,"[]",0,"random",5,5,2669,0,173,173,16059127226478811136,"attentional-mouselab",34,366868,7
"255","mouselab","False","[]","[[7, 8, 2, 4, 5], [6, 6, 3, 6, 6], [7, 5, 6, 6, 7], [4, 3, 5, 5, 4], [7, 5, 5, 2, 7]]","[[2, 0, 0, 2, 2], [2, 2, 2, 2, 2], [0, 2, 2, 2, 2], [2, 2, 0, 0, 2], [2, 2, 2, 0, 2]]","[6, 11, 10, 2, 1]",18,31,1,0.058,0.058,0,"[]",0,"extreme",5,5,1666,0,175,175,16963549866614693888,"attentional-mouselab",35,369627,7
"256","mouselab","False","[]","[[5, 2, 6, 4, 5], [6, 5, 4, 2, 6], [7, 4, 4, 4, 5], [3, 5, 6, 4, 6], [4, 6, 3, 6, 5]]","[[0, 2, 2, 0, 2], [2, 2, 2, 2, 0], [2, 2, 0, 0, 2], [2, 2, 2, 0, 2], [2, 2, 2, 2, 2]]","[7, 4, 10, 2, 7]",12,32,0,0.054,0.054,0,"[]",0,"random",5,5,3749,0,163,163,10797063799223330816,"attentional-mouselab",36,374442,7
"257","mouselab","True","[7, 7, 7, 7, 18, 18, 18, 5, 5, 5, 3, 3, 15, 15, 11, 11, 24, 24, 19, 19]","[[4, 6, 5, 4, 1], [8, 5, 6, 4, 6], [4, 4, 2, 6, 6], [4, 9, 6, 3, 4], [6, 4, 4, 3, 6]]","[[2, 0, 2, 2, 0], [2, 2, 2, 2, 2], [2, 2, 2, 2, 0], [2, 2, 0, 2, 2], [2, 0, 0, 2, 2]]","[2, 6, 4, 12, 6]",12,1,2,0.05,0.0446666666666667,0.00533333333333333,"[7, 18, 5, 3, 15, 11, 24, 19]",8,"random",5,5,49282,16,150,134,5980583859709008896,"attentional-mouselab",4,228545,8
"258","mouselab","True","[]","[[3, 4, 3, 1, 5], [5, 4, 4, 5, 6], [6, 6, 7, 5, 7], [8, 5, 5, 4, 3], [5, 3, 3, 5, 4]]","[[2, 2, 2, 0, 2], [2, 0, 2, 0, 2], [2, 2, 2, 2, 2], [2, 0, 0, 2, 2], [2, 2, 2, 0, 2]]","[4, 4, 13, 8, 1]",18,2,4,0.054,0.054,0,"[]",0,"random",5,5,21428,0,163,163,9557428711027734528,"attentional-mouselab",5,253850,8
"259","mouselab","False","[]","[[5, 6, 8, 6, 7], [5, 6, 7, 5, 6], [4, 8, 7, 4, 9], [4, 8, 6, 2, 4], [8, 6, 2, 6, 7]]","[[2, 2, 2, 2, 2], [2, 0, 0, 2, 0], [2, 2, 2, 2, 2], [2, 0, 2, 2, 2], [0, 2, 2, 0, 2]]","[12, 2, 4, 10, 2]",20,3,1,0.069,0.069,0,"[]",0,"random",5,5,8203,0,208,208,1.5997351454107e+19,"attentional-mouselab",7,269672,8
"260","mouselab","False","[]","[[4, 5, 5, 7, 5], [9, 6, 7, 5, 6], [6, 9, 7, 5, 8], [3, 6, 6, 1, 4], [4, 5, 5, 4, 6]]","[[2, 2, 2, 2, 0], [0, 2, 0, 0, 2], [2, 0, 2, 2, 2], [2, 2, 2, 0, 2], [2, 2, 2, 2, 2]]","[4, 7, 6, 1, 12]",14,4,2,0.059,0.059,0,"[]",0,"extreme",5,5,8253,0,177,177,7015965883335328768,"attentional-mouselab",8,280501,8
"261","mouselab","False","[]","[[8, 5, 3, 3, 4], [10, 6, 6, 6, 5], [4, 5, 8, 4, 8], [6, 3, 5, 6, 5], [4, 6, 7, 4, 7]]","[[0, 2, 0, 0, 2], [0, 2, 2, 2, 2], [2, 0, 2, 2, 2], [2, 2, 2, 2, 2], [2, 2, 2, 2, 0]]","[1, 2, 13, 7, 7]",18,5,0,0.05,0.05,0,"[]",0,"greedy",5,5,3956,0,150,150,11960909740358897664,"attentional-mouselab",9,288431,8
"262","mouselab","False","[]","[[3, 5, 5, 6, 5], [6, 7, 5, 3, 4], [7, 5, 6, 5, 6], [4, 10, 3, 6, 5], [8, 6, 7, 5, 3]]","[[0, 2, 0, 2, 2], [2, 2, 2, 0, 2], [2, 2, 2, 2, 2], [2, 0, 2, 2, 0], [2, 2, 2, 2, 0]]","[2, 4, 18, 3, 3]",24,6,2,0.056,0.056,0,"[]",0,"random",5,5,8063,0,168,168,3750950299255781376,"attentional-mouselab",10,298550,8
"263","mouselab","False","[]","[[9, 9, 1, 0, 5], [3, 6, 8, 5, 4], [6, 3, 5, 5, 7], [4, 1, 5, 6, 4], [5, 5, 8, 2, 6]]","[[0, 2, 0, 0, 2], [0, 2, 0, 2, 2], [2, 2, 2, 2, 2], [2, 2, 2, 2, 2], [2, 2, 0, 2, 2]]","[14, 1, 3, 3, 9]",22,7,2,0.041,0.041,0,"[]",0,"greedy",5,5,4996,0,124,124,7062910679790771200,"attentional-mouselab",11,305349,8
"264","mouselab","False","[]","[[6, 5, 6, 4, 4], [4, 6, 5, 4, 5], [5, 4, 5, 6, 5], [5, 3, 6, 6, 9], [3, 7, 3, 6, 5]]","[[2, 2, 2, 2, 2], [0, 2, 2, 2, 2], [2, 2, 0, 2, 2], [0, 2, 0, 2, 0], [2, 2, 0, 2, 2]]","[5, 14, 2, 2, 7]",18,8,4,0.051,0.051,0,"[]",0,"random",5,5,5890,0,153,153,4086311891563829760,"attentional-mouselab",12,313182,8
"265","mouselab","False","[]","[[6, 7, 5, 6, 6], [2, 3, 9, 3, 6], [6, 5, 4, 2, 4], [6, 5, 5, 5, 5], [5, 7, 4, 6, 1]]","[[2, 0, 2, 2, 2], [2, 2, 0, 2, 2], [2, 0, 2, 2, 2], [2, 0, 2, 2, 2], [2, 0, 0, 2, 2]]","[4, 12, 6, 7, 1]",14,9,4,0.052,0.052,0,"[]",0,"greedy",5,5,4997,0,156,156,15305317117221312512,"attentional-mouselab",13,320257,8
"266","mouselab","False","[]","[[4, 2, 8, 6, 7], [5, 7, 7, 5, 7], [7, 2, 4, 7, 7], [5, 6, 7, 5, 4], [1, 6, 4, 7, 5]]","[[2, 2, 2, 0, 2], [2, 2, 2, 2, 2], [0, 2, 0, 2, 2], [0, 2, 0, 2, 2], [2, 0, 2, 2, 2]]","[8, 5, 1, 3, 13]",18,10,0,0.031,0.031,0,"[]",0,"random",5,5,3744,0,92,92,12395817909876518912,"attentional-mouselab",14,325509,8
"267","mouselab","False","[]","[[5, 7, 5, 6, 5], [5, 6, 5, 3, 4], [5, 5, 8, 3, 5], [3, 5, 4, 6, 7], [8, 5, 5, 5, 4]]","[[2, 2, 2, 2, 2], [0, 2, 2, 0, 2], [2, 0, 2, 2, 2], [2, 2, 2, 0, 2], [2, 0, 0, 2, 2]]","[20, 2, 6, 1, 1]",28,11,0,0.05,0.05,0,"[]",0,"random",5,5,6298,0,151,151,14961880072655525888,"attentional-mouselab",15,334262,8
