"","type","is_practice","click_values","payoff_matrix","cost_matrix","weights","weights_deviation","trial_num","selected_option","gross_earnings","net_earnings","click_cost","uncovered_values","num_values_revealed","nudge_type","num_baskets","num_features","reaction_time","points_click_cost","points_action_utility","points_metalevel_reward","problem_id","trial_type","trial_index","time_elapsed","participant_id"
"1","mouselab","True","[8]","[[4, 7, 4, 5, 7], [7, 3, 6, 7, 8], [7, 5, 6, 8, 4], [4, 7, 6, 6, 4], [3, 6, 6, 7, 5]]","[[1, 3, 3, 3, 3], [3, 1, 3, 3, 3], [1, 1, 3, 3, 3], [3, 3, 3, 3, 3], [3, 1, 1, 3, 3]]","[2, 17, 4, 3, 4]",22,1,3,0.069,0.0686666666666667,0.000333333333333333,"[]",0,"random",5,5,7766,1,207,206,585486770995025408,"attentional-mouselab",4,132450,0
"2","mouselab","True","[]","[[4, 6, 5, 2, 5], [6, 1, 4, 4, 7], [2, 4, 2, 3, 5], [5, 6, 6, 8, 5], [6, 4, 5, 2, 5]]","[[3, 3, 3, 1, 3], [3, 3, 3, 3, 3], [3, 3, 3, 3, 3], [3, 1, 3, 1, 1], [3, 1, 3, 3, 1]]","[1, 7, 9, 5, 8]",12,2,3,0.038,0.038,0,"[]",0,"random",5,5,2702,0,113,113,7940710075208626176,"attentional-mouselab",5,137898,0
"3","mouselab","False","[]","[[5, 7, 3, 6, 4], [4, 3, 3, 7, 5], [5, 8, 7, 6, 7], [9, 7, 6, 5, 6], [6, 5, 5, 10, 2]]","[[3, 3, 3, 3, 3], [3, 3, 3, 3, 3], [3, 3, 3, 3, 3], [3, 1, 3, 1, 3], [3, 1, 1, 1, 1]]","[1, 6, 9, 12, 2]",18,3,2,0.055,0.055,0,"[]",0,"random",5,5,2238,0,166,166,13492386580757700608,"attentional-mouselab",7,143706,0
"4","mouselab","False","[]","[[6, 6, 5, 6, 5], [1, 4, 5, 5, 6], [4, 3, 2, 6, 5], [2, 6, 7, 5, 6], [7, 5, 2, 5, 4]]","[[3, 3, 3, 1, 3], [1, 1, 3, 3, 1], [3, 3, 3, 1, 3], [1, 3, 3, 3, 3], [3, 3, 3, 3, 3]]","[7, 6, 3, 7, 7]",6,4,4,0.052,0.052,0,"[]",0,"greedy",5,5,3039,0,156,156,16319366751650621440,"attentional-mouselab",8,148658,0
"5","mouselab","False","[]","[[7, 4, 7, 5, 5], [6, 8, 5, 6, 5], [9, 7, 4, 5, 6], [3, 3, 5, 7, 4], [5, 4, 4, 4, 7]]","[[1, 3, 3, 3, 3], [3, 3, 3, 3, 3], [1, 3, 3, 3, 1], [1, 3, 1, 1, 3], [3, 3, 3, 3, 3]]","[1, 2, 9, 14, 4]",22,5,2,0.046,0.046,0,"[]",0,"greedy",5,5,2623,0,139,139,7716857061610744832,"attentional-mouselab",9,152522,0
"6","mouselab","False","[]","[[6, 6, 4, 5, 6], [7, 4, 8, 5, 7], [5, 2, 5, 5, 7], [4, 6, 4, 4, 6], [4, 3, 6, 3, 5]]","[[3, 3, 3, 3, 1], [3, 3, 3, 3, 1], [1, 3, 3, 3, 1], [1, 3, 3, 3, 3], [3, 1, 3, 3, 3]]","[15, 1, 3, 4, 7]",20,6,0,0.052,0.052,0,"[]",0,"greedy",5,5,831,0,156,156,17419400685189769216,"attentional-mouselab",10,154545,0
"7","mouselab","False","[]","[[7, 5, 4, 7, 6], [3, 6, 5, 5, 5], [8, 1, 5, 5, 7], [3, 5, 2, 5, 6], [4, 6, 3, 7, 5]]","[[3, 3, 3, 3, 3], [3, 1, 3, 1, 3], [3, 3, 3, 3, 3], [3, 3, 1, 3, 1], [1, 3, 3, 3, 1]]","[9, 2, 7, 2, 10]",16,7,3,0.063,0.063,0,"[]",0,"random",5,5,759,0,188,188,1135590645018953344,"attentional-mouselab",11,156298,0
"8","mouselab","False","[]","[[4, 6, 7, 7, 7], [4, 7, 7, 3, 4], [4, 7, 2, 6, 7], [9, 4, 7, 5, 3], [9, 6, 5, 5, 5]]","[[3, 1, 3, 1, 1], [1, 3, 3, 3, 3], [1, 3, 3, 3, 3], [1, 3, 3, 3, 3], [3, 3, 3, 3, 3]]","[1, 12, 5, 6, 6]",12,8,2,0.058,0.058,0,"[]",0,"random",5,5,710,0,173,173,14122248548037801984,"attentional-mouselab",12,158194,0
"9","mouselab","False","[]","[[6, 6, 5, 6, 2], [7, 2, 5, 7, 5], [6, 7, 3, 5, 5], [5, 5, 2, 7, 5], [4, 7, 5, 6, 5]]","[[3, 3, 3, 3, 1], [3, 1, 1, 1, 3], [3, 3, 3, 3, 3], [3, 3, 1, 3, 1], [3, 3, 3, 3, 3]]","[2, 17, 2, 7, 2]",24,9,1,0.036,0.036,0,"[]",0,"extreme",5,5,1198,0,109,109,2712173566615869440,"attentional-mouselab",13,160594,0
"10","mouselab","False","[]","[[7, 3, 5, 5, 8], [6, 1, 4, 8, 9], [2, 5, 6, 3, 6], [3, 3, 4, 6, 5], [3, 6, 7, 5, 5]]","[[3, 1, 3, 3, 3], [3, 3, 3, 3, 3], [3, 3, 1, 3, 3], [1, 1, 3, 3, 3], [1, 3, 1, 3, 3]]","[4, 3, 14, 6, 3]",16,10,4,0.063,0.063,0,"[]",0,"random",5,5,1023,0,188,188,12343390575741921280,"attentional-mouselab",14,164066,0
"11","mouselab","False","[]","[[5, 7, 6, 5, 5], [5, 5, 6, 6, 6], [5, 4, 5, 4, 6], [7, 6, 2, 7, 6], [5, 9, 6, 4, 6]]","[[3, 1, 3, 3, 3], [3, 3, 3, 1, 3], [3, 1, 3, 3, 1], [3, 3, 1, 3, 3], [3, 1, 3, 3, 3]]","[1, 3, 9, 14, 3]",22,11,4,0.06,0.06,0,"[]",0,"extreme",5,5,966,0,179,179,6538258526578510848,"attentional-mouselab",15,166162,0
"12","mouselab","False","[]","[[6, 2, 4, 2, 4], [6, 7, 7, 6, 6], [5, 4, 7, 6, 5], [4, 2, 6, 5, 5], [6, 3, 5, 5, 6]]","[[3, 3, 3, 3, 1], [3, 3, 1, 3, 3], [3, 3, 1, 3, 3], [1, 1, 1, 3, 3], [3, 3, 3, 3, 3]]","[1, 7, 3, 14, 5]",18,12,3,0.052,0.052,0,"[]",0,"greedy",5,5,1102,0,157,157,6795761916595837952,"attentional-mouselab",16,168434,0
"13","mouselab","False","[]","[[3, 5, 3, 3, 3], [5, 5, 5, 8, 3], [6, 3, 7, 6, 4], [3, 6, 5, 4, 5], [6, 6, 5, 3, 0]]","[[1, 3, 3, 3, 3], [3, 3, 3, 1, 3], [3, 3, 1, 3, 3], [1, 3, 3, 3, 3], [3, 1, 3, 1, 3]]","[11, 2, 11, 5, 1]",20,13,1,0.045,0.045,0,"[]",0,"greedy",5,5,590,0,134,134,11981394669422471168,"attentional-mouselab",17,170033,0
"14","mouselab","False","[]","[[8, 4, 3, 5, 3], [5, 9, 9, 5, 6], [0, 3, 4, 7, 6], [6, 5, 4, 5, 4], [3, 4, 6, 3, 5]]","[[1, 3, 3, 3, 3], [3, 1, 1, 3, 3], [1, 1, 3, 3, 3], [3, 3, 3, 3, 3], [3, 1, 3, 3, 3]]","[16, 4, 3, 6, 1]",20,14,2,0.042,0.042,0,"[]",0,"extreme",5,5,966,0,126,126,11122310176929325056,"attentional-mouselab",18,172434,0
"15","mouselab","False","[]","[[4, 7, 3, 3, 5], [7, 5, 6, 5, 6], [5, 5, 8, 3, 3], [5, 4, 4, 4, 8], [5, 6, 5, 4, 4]]","[[3, 1, 3, 3, 3], [3, 3, 3, 3, 3], [3, 3, 1, 3, 3], [3, 1, 1, 3, 3], [1, 3, 3, 3, 1]]","[4, 2, 19, 4, 1]",26,15,3,0.033,0.033,0,"[]",0,"random",5,5,1006,0,99,99,16794635101459068928,"attentional-mouselab",19,174921,0
"16","mouselab","False","[]","[[5, 7, 3, 6, 6], [6, 7, 8, 5, 7], [6, 5, 6, 4, 9], [5, 5, 4, 4, 6], [4, 4, 2, 5, 7]]","[[3, 3, 3, 1, 3], [1, 3, 3, 3, 3], [3, 1, 3, 1, 3], [3, 3, 1, 3, 3], [3, 3, 3, 3, 1]]","[1, 3, 2, 10, 14]",24,16,0,0.047,0.047,0,"[]",0,"random",5,5,871,0,141,141,6254821992393915392,"attentional-mouselab",20,177233,0
"17","mouselab","False","[]","[[7, 2, 4, 4, 4], [6, 5, 8, 5, 5], [6, 6, 3, 5, 3], [7, 4, 1, 3, 6], [7, 5, 6, 6, 3]]","[[1, 3, 3, 3, 3], [3, 1, 3, 3, 1], [3, 3, 3, 3, 3], [1, 3, 3, 1, 3], [1, 3, 3, 3, 3]]","[10, 8, 2, 8, 2]",16,17,2,0.043,0.043,0,"[]",0,"random",5,5,1006,0,130,130,6744968927774664704,"attentional-mouselab",21,179234,0
"18","mouselab","False","[]","[[5, 4, 3, 6, 4], [6, 8, 3, 7, 7], [5, 6, 6, 6, 6], [3, 3, 8, 6, 3], [6, 8, 7, 6, 4]]","[[1, 3, 3, 3, 3], [3, 1, 3, 3, 3], [3, 3, 3, 3, 1], [3, 3, 1, 1, 3], [3, 1, 3, 3, 3]]","[1, 3, 13, 1, 12]",26,18,1,0.068,0.068,0,"[]",0,"extreme",5,5,974,0,205,205,10942560722060619776,"attentional-mouselab",22,181530,0
"19","mouselab","False","[]","[[5, 3, 6, 5, 6], [9, 3, 6, 3, 7], [5, 4, 5, 5, 3], [3, 6, 7, 6, 3], [6, 5, 4, 6, 6]]","[[3, 3, 3, 3, 3], [1, 3, 1, 3, 3], [3, 3, 3, 1, 1], [3, 1, 3, 3, 1], [3, 3, 3, 3, 3]]","[1, 6, 9, 6, 8]",10,19,4,0.047,0.047,0,"[]",0,"extreme",5,5,783,0,141,141,10152153179664687104,"attentional-mouselab",23,183418,0
"20","mouselab","False","[]","[[3, 7, 7, 5, 4], [3, 3, 5, 3, 4], [6, 5, 7, 5, 5], [4, 4, 4, 6, 2], [5, 4, 6, 5, 5]]","[[3, 3, 1, 3, 3], [3, 1, 3, 1, 3], [3, 3, 1, 3, 3], [3, 3, 3, 3, 3], [3, 3, 1, 1, 3]]","[13, 7, 4, 4, 2]",16,20,3,0.047,0.047,0,"[]",0,"greedy",5,5,757,0,140,140,9242031296026763264,"attentional-mouselab",24,185227,0
"21","mouselab","False","[]","[[4, 4, 6, 4, 4], [3, 4, 6, 8, 7], [6, 3, 4, 4, 7], [7, 6, 7, 4, 5], [8, 6, 5, 5, 5]]","[[3, 3, 3, 3, 3], [3, 1, 3, 3, 1], [3, 1, 3, 3, 3], [3, 3, 1, 3, 3], [1, 1, 3, 3, 3]]","[7, 4, 9, 8, 2]",12,21,0,0.055,0.055,0,"[]",0,"greedy",5,5,813,0,166,166,8990598246620205056,"attentional-mouselab",25,187018,0
"22","mouselab","False","[]","[[4, 3, 3, 3, 3], [5, 6, 7, 7, 6], [5, 5, 7, 2, 3], [6, 6, 5, 7, 3], [8, 4, 5, 6, 6]]","[[3, 3, 3, 1, 3], [1, 3, 1, 3, 3], [3, 3, 1, 3, 3], [3, 1, 3, 3, 3], [1, 3, 3, 3, 3]]","[7, 2, 10, 5, 6]",10,22,3,0.042,0.042,0,"[]",0,"greedy",5,5,1054,0,126,126,7296166216827161600,"attentional-mouselab",26,189210,0
"23","mouselab","False","[]","[[5, 5, 6, 4, 3], [5, 7, 7, 5, 8], [5, 5, 4, 7, 7], [7, 3, 5, 6, 6], [6, 4, 5, 8, 4]]","[[3, 3, 3, 3, 3], [1, 3, 3, 3, 1], [3, 3, 3, 1, 3], [3, 3, 3, 1, 3], [3, 3, 3, 1, 1]]","[1, 7, 6, 12, 4]",14,23,2,0.053,0.053,0,"[]",0,"greedy",5,5,830,0,159,159,4540512327913683456,"attentional-mouselab",27,191138,0
"24","mouselab","False","[]","[[7, 4, 2, 4, 3], [3, 4, 4, 6, 6], [5, 5, 3, 6, 3], [3, 5, 6, 3, 7], [3, 6, 3, 2, 5]]","[[1, 3, 1, 3, 3], [3, 3, 3, 3, 3], [3, 3, 3, 3, 1], [1, 1, 3, 3, 3], [3, 3, 3, 1, 3]]","[11, 4, 7, 5, 3]",12,24,1,0.046,0.046,0,"[]",0,"extreme",5,5,670,0,138,138,1409868610920274432,"attentional-mouselab",28,192858,0
"25","mouselab","False","[]","[[4, 4, 5, 4, 8], [4, 4, 8, 4, 6], [3, 4, 5, 5, 3], [6, 3, 8, 3, 5], [6, 8, 10, 5, 5]]","[[3, 3, 3, 1, 3], [3, 3, 3, 3, 3], [3, 3, 3, 3, 3], [3, 3, 1, 1, 3], [3, 1, 1, 1, 3]]","[3, 20, 3, 1, 3]",28,25,0,0.042,0.042,0,"[]",0,"extreme",5,5,686,0,125,125,1.4854474324415e+19,"attentional-mouselab",29,194554,0
"26","mouselab","False","[]","[[5, 4, 6, 3, 8], [5, 6, 3, 7, 6], [4, 4, 8, 4, 3], [7, 7, 5, 6, 5], [5, 3, 5, 4, 6]]","[[3, 1, 3, 3, 1], [3, 3, 3, 1, 3], [3, 3, 1, 3, 3], [3, 1, 3, 3, 3], [3, 1, 3, 3, 3]]","[8, 8, 4, 9, 1]",14,26,4,0.058,0.058,0,"[]",0,"extreme",5,5,1214,0,175,175,1135796651798662912,"attentional-mouselab",30,197025,0
"27","mouselab","False","[]","[[8, 5, 8, 4, 4], [4, 6, 4, 6, 4], [5, 1, 6, 4, 7], [5, 5, 4, 7, 6], [6, 1, 4, 0, 5]]","[[3, 3, 1, 3, 3], [3, 1, 3, 3, 3], [3, 1, 3, 3, 3], [3, 3, 3, 1, 3], [3, 1, 3, 1, 3]]","[3, 4, 5, 17, 1]",22,27,1,0.043,0.043,0,"[]",0,"extreme",5,5,695,0,130,130,11366324717609744384,"attentional-mouselab",31,198914,0
"28","mouselab","False","[]","[[2, 5, 8, 4, 6], [5, 3, 4, 8, 3], [4, 6, 4, 1, 3], [3, 6, 8, 6, 6], [3, 5, 7, 4, 5]]","[[1, 3, 3, 3, 3], [3, 3, 3, 1, 3], [3, 1, 3, 1, 3], [3, 3, 3, 3, 3], [3, 1, 1, 3, 3]]","[1, 14, 4, 9, 2]",22,28,3,0.061,0.061,0,"[]",0,"extreme",5,5,3166,0,182,182,6685893525115922432,"attentional-mouselab",32,203065,0
"29","mouselab","False","[]","[[5, 8, 6, 5, 3], [7, 6, 4, 5, 7], [4, 4, 5, 5, 10], [6, 4, 4, 6, 6], [4, 7, 4, 6, 6]]","[[3, 1, 3, 1, 3], [3, 3, 3, 3, 1], [3, 3, 3, 3, 1], [3, 3, 3, 3, 1], [3, 3, 3, 3, 1]]","[9, 1, 12, 3, 5]",18,29,2,0.05,0.05,0,"[]",0,"greedy",5,5,638,0,150,150,1.8183561035981e+19,"attentional-mouselab",33,204633,0
"30","mouselab","False","[]","[[7, 4, 4, 6, 4], [7, 5, 7, 9, 7], [2, 3, 4, 6, 6], [2, 5, 6, 4, 5], [5, 5, 5, 6, 3]]","[[3, 1, 3, 1, 3], [3, 1, 1, 3, 1], [1, 3, 3, 3, 3], [3, 3, 3, 3, 3], [3, 3, 3, 3, 3]]","[6, 6, 15, 2, 1]",18,30,0,0.041,0.041,0,"[]",0,"random",5,5,1247,0,123,123,1872115691534603264,"attentional-mouselab",34,207025,0
"31","mouselab","False","[]","[[6, 6, 3, 3, 7], [4, 5, 2, 7, 5], [5, 5, 3, 4, 4], [10, 3, 8, 5, 2], [5, 5, 5, 5, 3]]","[[3, 3, 3, 3, 1], [3, 3, 3, 3, 1], [1, 3, 3, 1, 1], [1, 3, 3, 3, 3], [3, 3, 3, 3, 3]]","[5, 4, 5, 10, 6]",8,31,1,0.045,0.045,0,"[]",0,"random",5,5,743,0,135,135,15403637418035714048,"attentional-mouselab",35,208945,0
"32","mouselab","False","[]","[[5, 3, 7, 6, 4], [6, 3, 7, 5, 5], [6, 4, 6, 6, 4], [4, 5, 4, 6, 3], [7, 3, 8, 5, 4]]","[[1, 3, 1, 1, 3], [3, 1, 3, 3, 3], [3, 1, 3, 3, 3], [3, 3, 3, 3, 3], [3, 1, 3, 3, 3]]","[1, 1, 14, 6, 8]",20,32,4,0.038,0.038,0,"[]",0,"random",5,5,806,0,115,115,3107623256668416000,"attentional-mouselab",36,211290,0
"33","mouselab","True","[10, 17, 8, 1, 8, 14, 16, 10]","[[7, 5, 4, 3, 5], [5, 5, 6, 1, 5], [2, 4, 6, 5, 7], [5, 7, 1, 6, 5], [4, 5, 5, 6, 5]]","[[3, 3, 3, 3, 3], [1, 3, 3, 3, 3], [3, 3, 1, 1, 3], [3, 1, 1, 3, 1], [3, 3, 3, 3, 3]]","[2, 4, 3, 7, 14]",18,1,1,0.054,0.0513333333333333,0.00266666666666667,"[17, 16]",2,"random",5,5,22279,8,161,153,1889358731601123072,"attentional-mouselab",4,102528,1
"34","mouselab","True","[7, 10, 22, 13, 1]","[[1, 5, 5, 4, 5], [5, 4, 4, 6, 5], [6, 2, 6, 5, 7], [7, 7, 8, 6, 6], [6, 4, 7, 7, 8]]","[[3, 1, 3, 3, 3], [3, 3, 1, 3, 3], [3, 3, 3, 1, 3], [3, 3, 1, 3, 1], [3, 3, 1, 3, 3]]","[1, 8, 3, 2, 16]",24,2,2,0.061,0.0593333333333333,0.00166666666666667,"[7, 22, 13, 1]",4,"random",5,5,6524,5,183,178,2900508380940060672,"attentional-mouselab",5,110566,1
"35","mouselab","False","[]","[[7, 6, 4, 4, 1], [7, 3, 2, 8, 8], [4, 2, 1, 1, 7], [6, 8, 5, 1, 7], [5, 7, 7, 3, 3]]","[[3, 3, 3, 3, 1], [3, 3, 3, 3, 3], [3, 3, 1, 1, 3], [3, 3, 3, 1, 3], [1, 3, 3, 1, 3]]","[8, 12, 1, 3, 6]",16,3,1,0.051,0.051,0,"[]",0,"extreme",5,5,895,0,152,152,8452305014539187200,"attentional-mouselab",7,115232,1
"36","mouselab","False","[7, 17, 23, 8]","[[6, 3, 7, 3, 4], [3, 2, 2, 7, 3], [6, 6, 4, 4, 5], [5, 6, 1, 4, 4], [3, 4, 1, 8, 0]]","[[3, 3, 1, 3, 3], [3, 1, 3, 3, 3], [3, 3, 3, 3, 3], [3, 3, 1, 3, 3], [3, 3, 1, 1, 1]]","[2, 4, 10, 5, 9]",14,4,3,0.055,0.0536666666666667,0.00133333333333333,"[17, 23]",2,"extreme",5,5,4090,4,166,162,9122157235728214016,"attentional-mouselab",8,120934,1
"37","mouselab","False","[2, 8, 12, 17]","[[5, 3, 8, 6, 6], [6, 4, 4, 8, 6], [8, 5, 6, 4, 3], [8, 5, 1, 6, 4], [3, 5, 5, 4, 3]]","[[3, 3, 1, 3, 3], [3, 3, 3, 1, 3], [1, 3, 3, 3, 3], [1, 3, 3, 1, 3], [3, 3, 3, 1, 3]]","[1, 16, 3, 6, 4]",20,5,2,0.039,0.0376666666666667,0.00133333333333333,"[2, 8]",2,"greedy",5,5,4333,4,116,112,5709048317288594432,"attentional-mouselab",9,126563,1
"38","mouselab","False","[]","[[4, 3, 4, 6, 6], [4, 4, 2, 4, 2], [5, 3, 6, 8, 2], [6, 4, 6, 6, 6], [3, 0, 6, 4, 5]]","[[3, 3, 1, 1, 3], [3, 3, 3, 3, 1], [1, 3, 3, 1, 3], [3, 3, 3, 1, 3], [3, 3, 3, 3, 3]]","[5, 3, 14, 5, 3]",16,6,4,0.036,0.036,0,"[]",0,"greedy",5,5,880,0,109,109,1.2418900116086e+19,"attentional-mouselab",10,128552,1
"39","mouselab","False","[23, 18, 13, 8, 3]","[[7, 2, 5, 6, 1], [5, 5, 8, 7, 3], [6, 6, 4, 5, 7], [3, 6, 3, 5, 3], [4, 5, 10, 7, 4]]","[[3, 3, 3, 3, 3], [1, 1, 3, 1, 3], [3, 3, 3, 3, 3], [1, 3, 3, 3, 1], [3, 3, 1, 3, 3]]","[7, 5, 8, 7, 3]",8,7,3,0.058,0.0563333333333333,0.00166666666666667,"[8]",1,"random",5,5,3897,5,173,168,14907461469138782208,"attentional-mouselab",11,134602,1
"40","mouselab","False","[]","[[2, 6, 5, 4, 6], [5, 6, 5, 5, 7], [3, 7, 5, 5, 3], [6, 5, 10, 7, 2], [4, 7, 4, 9, 6]]","[[1, 3, 3, 3, 3], [3, 3, 3, 3, 3], [3, 3, 3, 3, 3], [3, 1, 1, 1, 3], [3, 3, 3, 1, 1]]","[9, 5, 9, 2, 5]",12,8,2,0.052,0.052,0,"[]",0,"extreme",5,5,1737,0,155,155,726467300155741952,"attentional-mouselab",12,137351,1
"41","mouselab","False","[]","[[4, 5, 5, 3, 5], [4, 0, 7, 8, 5], [6, 5, 4, 6, 4], [8, 5, 9, 5, 4], [4, 5, 5, 2, 6]]","[[1, 3, 3, 3, 3], [3, 3, 1, 3, 1], [3, 3, 3, 3, 3], [3, 3, 1, 3, 3], [1, 3, 3, 1, 3]]","[4, 4, 2, 6, 14]",16,9,1,0.043,0.043,0,"[]",0,"greedy",5,5,776,0,130,130,7049300693592868864,"attentional-mouselab",13,139293,1
"42","mouselab","False","[]","[[3, 6, 5, 5, 3], [5, 6, 4, 4, 4], [7, 6, 4, 6, 6], [8, 5, 6, 2, 6], [5, 1, 6, 7, 5]]","[[3, 3, 1, 3, 1], [3, 3, 3, 3, 3], [1, 3, 3, 3, 3], [1, 3, 3, 1, 3], [3, 1, 3, 3, 3]]","[13, 9, 2, 3, 3]",20,10,1,0.054,0.054,0,"[]",0,"extreme",5,5,759,0,162,162,7927863295918141440,"attentional-mouselab",14,140862,1
"43","mouselab","False","[]","[[4, 7, 5, 5, 5], [6, 4, 7, 6, 6], [0, 5, 3, 7, 7], [8, 7, 3, 6, 4], [4, 1, 4, 3, 5]]","[[3, 3, 3, 1, 3], [3, 3, 3, 3, 3], [1, 1, 3, 3, 3], [1, 3, 3, 3, 3], [3, 1, 3, 1, 3]]","[16, 5, 2, 3, 4]",20,11,1,0.056,0.056,0,"[]",0,"extreme",5,5,747,0,167,167,17316304379102824448,"attentional-mouselab",15,142533,1
"44","mouselab","False","[]","[[3, 3, 5, 4, 6], [2, 6, 10, 7, 6], [6, 7, 5, 2, 6], [2, 3, 3, 7, 4], [7, 5, 6, 4, 5]]","[[3, 3, 3, 3, 3], [3, 3, 1, 3, 3], [3, 3, 3, 3, 1], [3, 3, 1, 1, 3], [1, 3, 1, 3, 3]]","[6, 9, 3, 11, 1]",16,12,1,0.044,0.044,0,"[]",0,"greedy",5,5,951,0,131,131,4988030608032185344,"attentional-mouselab",16,144902,1
"45","mouselab","False","[]","[[4, 3, 7, 5, 4], [6, 7, 6, 5, 7], [3, 7, 5, 7, 2], [3, 5, 5, 5, 9], [4, 5, 6, 4, 5]]","[[1, 3, 1, 1, 3], [3, 3, 1, 3, 3], [3, 1, 3, 3, 3], [1, 3, 3, 3, 3], [3, 3, 3, 3, 3]]","[2, 4, 7, 10, 7]",12,13,1,0.056,0.056,0,"[]",0,"random",5,5,1018,0,168,168,8380608825066262528,"attentional-mouselab",17,147240,1
"46","mouselab","False","[15, 11, 1]","[[3, 5, 6, 5, 3], [5, 4, 6, 3, 5], [6, 6, 2, 6, 2], [6, 4, 5, 4, 4], [6, 4, 3, 6, 4]]","[[1, 3, 1, 3, 3], [3, 3, 3, 3, 3], [1, 3, 3, 3, 3], [1, 3, 1, 3, 3], [1, 3, 3, 3, 3]]","[12, 1, 3, 8, 6]",16,14,0,0.048,0.047,0.001,"[15]",1,"greedy",5,5,3176,3,143,140,10884605795577114624,"attentional-mouselab",18,151493,1
"47","mouselab","False","[1, 6, 11]","[[6, 7, 4, 5, 10], [4, 8, 2, 6, 6], [3, 4, 7, 4, 7], [5, 6, 4, 5, 5], [5, 1, 5, 5, 7]]","[[3, 3, 3, 3, 1], [3, 3, 3, 1, 3], [3, 1, 3, 1, 3], [3, 1, 3, 3, 3], [3, 3, 1, 3, 3]]","[6, 13, 1, 6, 4]",14,15,1,0.063,0.062,0.001,"[11]",1,"random",5,5,2765,3,190,187,4020452565837437440,"attentional-mouselab",19,155497,1
"48","mouselab","False","[1, 6, 11, 16, 21]","[[4, 5, 5, 5, 8], [5, 5, 4, 3, 5], [7, 4, 10, 4, 3], [4, 8, 5, 6, 0], [6, 5, 6, 5, 5]]","[[3, 3, 3, 1, 1], [3, 3, 3, 3, 3], [3, 3, 1, 3, 1], [3, 3, 3, 3, 1], [3, 3, 3, 3, 1]]","[7, 8, 2, 9, 4]",12,16,1,0.058,0.0563333333333333,0.00166666666666667,"[]",0,"extreme",5,5,3160,5,175,170,11089987029762406400,"attentional-mouselab",20,159711,1
"49","mouselab","False","[21]","[[4, 4, 6, 5, 6], [3, 6, 5, 3, 4], [4, 5, 6, 4, 8], [4, 7, 5, 7, 0], [2, 7, 4, 4, 2]]","[[3, 3, 3, 3, 3], [3, 3, 3, 3, 1], [3, 3, 3, 3, 3], [3, 1, 3, 1, 1], [1, 3, 3, 1, 3]]","[1, 5, 9, 3, 12]",18,17,1,0.061,0.0606666666666667,0.000333333333333333,"[]",0,"random",5,5,1519,1,184,183,5348032188854634496,"attentional-mouselab",21,162153,1
"50","mouselab","False","[]","[[5, 7, 3, 6, 4], [4, 3, 3, 7, 5], [5, 8, 7, 6, 7], [9, 7, 6, 5, 6], [6, 5, 5, 10, 2]]","[[3, 3, 3, 3, 3], [3, 3, 3, 3, 3], [3, 3, 3, 3, 3], [3, 1, 3, 1, 3], [3, 1, 1, 1, 1]]","[5, 2, 17, 2, 4]",22,18,2,0.057,0.057,0,"[]",0,"random",5,5,823,0,172,172,13492386580757700608,"attentional-mouselab",22,164110,1
"51","mouselab","False","[13, 8, 3, 5]","[[7, 7, 4, 2, 7], [9, 2, 3, 2, 5], [5, 5, 5, 4, 5], [5, 5, 6, 4, 4], [7, 6, 5, 5, 9]]","[[1, 3, 3, 3, 3], [1, 3, 3, 3, 3], [3, 3, 1, 3, 1], [3, 3, 3, 3, 3], [3, 1, 3, 3, 1]]","[3, 5, 2, 11, 9]",16,19,3,0.038,0.0366666666666667,0.00133333333333333,"[5]",1,"greedy",5,5,5629,4,113,109,17086180172175767552,"attentional-mouselab",23,171001,1
"52","mouselab","False","[]","[[4, 5, 1, 4, 6], [4, 6, 2, 4, 5], [5, 1, 6, 10, 2], [7, 2, 4, 5, 4], [3, 4, 4, 6, 4]]","[[3, 3, 1, 1, 3], [3, 3, 3, 3, 3], [3, 1, 3, 1, 3], [3, 3, 3, 3, 3], [1, 3, 1, 3, 3]]","[4, 9, 8, 7, 2]",12,20,1,0.035,0.035,0,"[]",0,"extreme",5,5,791,0,104,104,8158765956003463168,"attentional-mouselab",24,172635,1
"53","mouselab","False","[]","[[2, 7, 4, 4, 6], [7, 5, 4, 6, 3], [4, 3, 7, 9, 7], [6, 2, 6, 6, 10], [6, 3, 5, 3, 7]]","[[3, 3, 3, 3, 3], [3, 3, 3, 3, 3], [3, 3, 1, 3, 1], [1, 3, 3, 3, 1], [3, 1, 3, 3, 1]]","[3, 13, 6, 5, 3]",14,21,1,0.041,0.041,0,"[]",0,"greedy",5,5,742,0,123,123,14128308410462529536,"attentional-mouselab",25,174462,1
"54","mouselab","False","[]","[[4, 4, 9, 8, 7], [5, 5, 4, 2, 3], [6, 5, 7, 5, 5], [5, 4, 5, 6, 6], [6, 6, 5, 7, 4]]","[[3, 1, 3, 3, 1], [3, 3, 3, 3, 3], [3, 3, 3, 1, 3], [3, 3, 3, 3, 1], [1, 3, 3, 3, 1]]","[1, 17, 1, 10, 1]",30,22,1,0.047,0.047,0,"[]",0,"random",5,5,914,0,140,140,4979420414473318400,"attentional-mouselab",26,176404,1
"55","mouselab","False","[21, 16]","[[5, 2, 2, 9, 3], [3, 5, 4, 5, 7], [5, 4, 4, 1, 7], [3, 8, 6, 6, 7], [3, 6, 5, 2, 2]]","[[1, 1, 1, 3, 1], [3, 1, 3, 3, 3], [3, 3, 3, 3, 3], [3, 3, 3, 1, 3], [3, 3, 3, 3, 3]]","[2, 15, 2, 8, 3]",22,23,1,0.056,0.0553333333333333,0.000666666666666667,"[]",0,"random",5,5,2214,2,169,167,13926450257687615488,"attentional-mouselab",27,179663,1
"56","mouselab","False","[]","[[4, 6, 6, 2, 5], [9, 5, 6, 9, 5], [5, 7, 3, 6, 3], [5, 9, 6, 4, 1], [5, 5, 2, 6, 4]]","[[3, 3, 3, 3, 3], [3, 3, 3, 1, 3], [3, 3, 1, 3, 1], [3, 1, 3, 3, 1], [3, 1, 3, 3, 3]]","[1, 2, 6, 5, 16]",20,24,1,0.061,0.061,0,"[]",0,"extreme",5,5,1074,0,183,183,15848790106198056960,"attentional-mouselab",28,181960,1
"57","mouselab","False","[]","[[2, 5, 3, 5, 7], [8, 5, 5, 3, 4], [8, 5, 5, 6, 6], [5, 6, 4, 4, 4], [2, 6, 5, 5, 5]]","[[3, 3, 3, 3, 3], [3, 3, 3, 3, 3], [1, 1, 3, 3, 3], [3, 1, 3, 1, 3], [1, 3, 3, 3, 1]]","[2, 3, 15, 5, 5]",18,25,1,0.053,0.053,0,"[]",0,"random",5,5,863,0,160,160,10689844274451384320,"attentional-mouselab",29,183820,1
"58","mouselab","False","[7, 12]","[[6, 5, 6, 7, 7], [2, 3, 4, 2, 4], [7, 4, 6, 9, 4], [3, 3, 3, 7, 10], [2, 5, 6, 5, 7]]","[[1, 3, 3, 3, 3], [3, 3, 3, 3, 1], [3, 3, 3, 1, 1], [3, 3, 3, 1, 3], [3, 3, 3, 1, 3]]","[1, 2, 6, 8, 13]",18,26,2,0.051,0.0503333333333333,0.000666666666666667,"[]",0,"random",5,5,2295,2,152,150,6127882599979157504,"attentional-mouselab",30,187855,1
"59","mouselab","False","[]","[[4, 7, 1, 6, 5], [8, 4, 5, 6, 6], [7, 7, 6, 6, 6], [2, 8, 7, 4, 4], [7, 7, 7, 5, 6]]","[[3, 1, 3, 3, 3], [1, 3, 3, 3, 3], [3, 1, 3, 3, 3], [3, 1, 3, 3, 3], [3, 1, 3, 1, 3]]","[4, 19, 1, 5, 1]",26,27,1,0.053,0.053,0,"[]",0,"greedy",5,5,3161,0,158,158,16853308082521546752,"attentional-mouselab",31,192611,1
"60","mouselab","False","[]","[[5, 6, 4, 4, 1], [5, 4, 6, 4, 7], [5, 4, 7, 4, 5], [5, 4, 4, 5, 4], [3, 2, 8, 4, 5]]","[[3, 3, 3, 1, 1], [3, 3, 1, 3, 3], [3, 3, 1, 3, 3], [3, 3, 3, 3, 3], [1, 3, 1, 3, 3]]","[13, 5, 3, 5, 4]",14,28,1,0.046,0.046,0,"[]",0,"greedy",5,5,960,0,138,138,17200853607555657728,"attentional-mouselab",32,194964,1
"61","mouselab","False","[11]","[[6, 5, 4, 8, 4], [6, 4, 10, 5, 4], [2, 5, 6, 8, 4], [5, 6, 5, 2, 2], [4, 4, 5, 8, 4]]","[[3, 3, 3, 3, 3], [3, 1, 1, 3, 3], [3, 1, 3, 1, 3], [3, 1, 3, 3, 1], [3, 3, 3, 3, 3]]","[5, 1, 10, 9, 5]",14,29,1,0.051,0.0506666666666667,0.000333333333333333,"[11]",1,"extreme",5,5,2061,1,153,152,17242349668041127936,"attentional-mouselab",33,199357,1
"62","mouselab","False","[0]","[[5, 4, 5, 5, 2], [5, 2, 5, 8, 3], [2, 6, 4, 5, 6], [3, 3, 2, 4, 6], [3, 6, 5, 2, 4]]","[[1, 1, 1, 3, 1], [1, 3, 3, 3, 1], [3, 3, 3, 3, 3], [3, 3, 3, 3, 3], [3, 3, 3, 3, 3]]","[5, 6, 4, 5, 10]",8,30,0,0.036,0.0356666666666667,0.000333333333333333,"[0]",1,"random",5,5,3201,1,108,107,5876454405630864384,"attentional-mouselab",34,203633,1
"63","mouselab","False","[0, 1, 2]","[[3, 3, 3, 5, 5], [9, 7, 6, 5, 1], [3, 6, 7, 2, 4], [7, 3, 2, 5, 6], [6, 5, 4, 5, 5]]","[[3, 3, 1, 3, 1], [1, 3, 3, 3, 1], [1, 3, 3, 3, 3], [3, 3, 1, 3, 3], [3, 3, 3, 3, 3]]","[1, 14, 3, 7, 5]",18,31,2,0.047,0.046,0.001,"[2]",1,"extreme",5,5,3323,3,142,139,7630023391710269440,"attentional-mouselab",35,208025,1
"64","mouselab","False","[]","[[3, 4, 5, 10, 7], [6, 4, 5, 5, 4], [4, 8, 3, 5, 4], [1, 5, 5, 6, 3], [6, 4, 6, 4, 8]]","[[3, 3, 3, 1, 3], [3, 1, 3, 3, 3], [3, 3, 3, 3, 3], [1, 3, 3, 3, 3], [3, 3, 1, 1, 1]]","[1, 5, 1, 10, 13]",22,32,2,0.054,0.054,0,"[]",0,"greedy",5,5,959,0,161,161,30067924885038152,"attentional-mouselab",36,209949,1
"65","mouselab","True","[13, 14, 12]","[[4, 3, 3, 6, 6], [4, 5, 4, 5, 8], [8, 4, 6, 5, 3], [4, 2, 4, 10, 4], [3, 3, 3, 3, 2]]","[[3, 3, 3, 1, 3], [3, 3, 3, 3, 3], [3, 3, 1, 1, 1], [3, 1, 3, 3, 3], [3, 1, 3, 3, 3]]","[1, 2, 19, 2, 6]",26,1,2,0.05,0.049,0.001,"[13, 14, 12]",3,"random",5,5,35913,3,151,148,3430665587302250496,"attentional-mouselab",4,291491,2
"66","mouselab","True","[9, 8, 8, 8, 7, 7, 7, 6, 6, 6, 5, 5, 5]","[[7, 6, 3, 5, 4], [8, 5, 2, 0, 7], [6, 4, 4, 4, 8], [6, 6, 6, 4, 3], [4, 7, 6, 5, 5]]","[[1, 3, 3, 3, 3], [3, 3, 3, 3, 1], [1, 3, 1, 3, 1], [3, 3, 3, 3, 1], [3, 3, 3, 3, 3]]","[1, 18, 5, 1, 5]",24,2,0,0.069,0.0646666666666667,0.00433333333333333,"[9, 8, 7, 6, 5]",5,"random",5,5,28311,13,207,194,4141497293248578560,"attentional-mouselab",5,322181,2
"67","mouselab","False","[17, 14, 4, 13, 13, 13, 12, 12, 12, 11, 11, 11, 10, 10, 10, 3, 3, 3]","[[5, 4, 6, 2, 6], [5, 6, 4, 7, 6], [4, 6, 6, 7, 9], [5, 4, 6, 4, 4], [2, 5, 5, 4, 5]]","[[3, 3, 3, 3, 1], [1, 3, 1, 3, 1], [3, 3, 3, 3, 1], [3, 3, 1, 3, 3], [3, 3, 3, 3, 3]]","[8, 3, 9, 9, 1]",16,3,4,0.063,0.057,0.006,"[17, 14, 4, 13, 12, 11, 10, 3]",8,"greedy",5,5,39196,18,188,170,1.4428083326726e+19,"attentional-mouselab",7,365361,2
"68","mouselab","False","[24, 24, 24, 23, 23, 23, 22, 22, 22, 21, 21, 21, 20, 20, 20]","[[1, 5, 2, 7, 8], [8, 5, 5, 8, 3], [3, 6, 2, 6, 1], [8, 4, 7, 5, 6], [3, 6, 8, 2, 5]]","[[1, 3, 1, 1, 3], [3, 3, 3, 3, 3], [3, 3, 3, 1, 1], [3, 3, 3, 3, 1], [3, 3, 3, 3, 3]]","[3, 3, 7, 1, 16]",22,4,2,0.057,0.052,0.005,"[24, 23, 22, 21, 20]",5,"extreme",5,5,13368,15,170,155,10532060995726827520,"attentional-mouselab",8,385552,2
"69","mouselab","False","[5, 5, 5, 6, 6, 7, 7, 7, 8, 8, 8, 9, 9, 9, 16, 17, 17, 17, 18, 18, 18, 19, 19, 19, 15, 15, 15]","[[6, 7, 6, 2, 4], [4, 0, 4, 6, 6], [4, 9, 4, 5, 6], [5, 7, 6, 6, 8], [4, 6, 8, 5, 5]]","[[3, 1, 3, 3, 3], [3, 1, 3, 3, 3], [3, 3, 1, 3, 3], [3, 1, 3, 3, 3], [3, 1, 3, 1, 3]]","[2, 9, 6, 7, 6]",8,5,4,0.061,0.0523333333333333,0.00866666666666667,"[5, 6, 7, 8, 9, 16, 17, 18, 19, 15]",10,"random",5,5,22419,26,184,158,6757021909378678784,"attentional-mouselab",9,409039,2
"70","mouselab","False","[4, 3, 3, 3, 2, 2, 2, 1, 1, 1, 0, 0, 0, 21, 24, 19]","[[3, 6, 4, 4, 2], [7, 3, 6, 4, 5], [4, 6, 6, 3, 5], [1, 5, 5, 5, 9], [6, 7, 6, 7, 8]]","[[3, 3, 3, 3, 1], [3, 1, 3, 3, 3], [3, 3, 3, 3, 3], [1, 3, 3, 3, 1], [3, 1, 3, 3, 1]]","[11, 6, 3, 2, 8]",14,6,1,0.056,0.0506666666666667,0.00533333333333333,"[4, 3, 2, 1, 0, 21, 24, 19]",8,"extreme",5,5,23481,16,168,152,8528965206569768960,"attentional-mouselab",10,433850,2
"71","mouselab","False","[2, 3, 3, 3, 4, 4, 4, 1, 1, 1, 0, 0, 0, 22, 17, 17, 24, 24, 24, 19, 19, 19]","[[5, 6, 7, 4, 7], [5, 6, 8, 5, 7], [4, 3, 7, 3, 8], [5, 1, 9, 3, 4], [3, 3, 5, 4, 6]]","[[3, 3, 1, 3, 3], [3, 3, 1, 1, 3], [3, 3, 3, 3, 3], [3, 1, 1, 3, 3], [3, 3, 1, 3, 3]]","[10, 2, 2, 8, 8]",16,7,2,0.071,0.064,0.007,"[2, 3, 4, 1, 0, 22, 17, 24, 19]",9,"greedy",5,5,20535,21,212,191,9455410224978106368,"attentional-mouselab",11,455532,2
"72","mouselab","False","[17, 16, 16, 16, 15, 15, 15, 18, 18, 18, 19, 19, 19, 10, 11, 13, 12, 12, 12, 14, 14, 14, 2, 2, 2, 1, 1, 1, 0, 0, 0, 3, 3, 3, 4, 4, 4]","[[3, 5, 6, 8, 4], [5, 3, 5, 5, 3], [5, 3, 5, 5, 5], [6, 4, 7, 6, 6], [5, 2, 4, 4, 7]]","[[3, 3, 3, 3, 3], [3, 3, 3, 1, 3], [1, 1, 3, 1, 3], [3, 3, 1, 3, 3], [3, 3, 3, 1, 3]]","[6, 3, 8, 12, 1]",16,8,2,0.06,0.0476666666666667,0.0123333333333333,"[17, 16, 15, 18, 19, 10, 11, 13, 12, 14, 2, 1, 0, 3, 4]",15,"random",5,5,36515,37,179,142,17211660169478201344,"attentional-mouselab",12,493272,2
"73","mouselab","False","[12, 10, 10, 10, 11, 11, 11, 13, 13, 13, 14, 14, 14, 17, 16, 16, 16, 15, 15, 15]","[[5, 4, 3, 8, 6], [4, 5, 5, 8, 2], [5, 5, 7, 2, 4], [7, 5, 6, 3, 0], [1, 6, 6, 3, 6]]","[[1, 3, 3, 1, 3], [3, 3, 3, 3, 3], [3, 3, 1, 3, 3], [3, 3, 1, 3, 3], [3, 3, 1, 3, 1]]","[2, 1, 17, 8, 2]",26,9,2,0.063,0.0563333333333333,0.00666666666666667,"[12, 10, 11, 13, 14, 17, 16, 15]",8,"greedy",5,5,22841,20,190,170,9019040078202697728,"attentional-mouselab",13,517162,2
"74","mouselab","False","[10, 11, 11, 11, 12, 12, 12, 13, 13, 13, 14, 14, 14, 23, 9, 8, 8, 8, 7, 7, 7, 6, 6, 6, 5, 5, 5]","[[3, 3, 4, 3, 6], [4, 5, 4, 7, 8], [8, 7, 3, 8, 5], [4, 4, 4, 4, 5], [4, 6, 6, 2, 7]]","[[3, 3, 1, 3, 3], [3, 3, 3, 3, 1], [1, 3, 3, 3, 3], [3, 3, 1, 3, 3], [3, 1, 3, 1, 3]]","[1, 10, 14, 3, 2]",24,10,3,0.067,0.058,0.009,"[10, 11, 12, 13, 14, 23, 9, 8, 7, 6, 5]",11,"extreme",5,5,19701,27,201,174,2530468291124542464,"attentional-mouselab",14,538059,2
"75","mouselab","False","[10, 10, 10, 11, 11, 11, 12, 12, 12, 13, 13, 13, 14, 14, 14, 0, 1, 1, 1, 2, 2, 2, 3, 3, 3, 4, 4, 4]","[[10, 4, 5, 5, 6], [7, 4, 6, 6, 8], [2, 5, 5, 4, 2], [3, 2, 6, 5, 4], [7, 5, 7, 3, 5]]","[[1, 3, 3, 1, 3], [3, 3, 1, 1, 1], [3, 3, 3, 3, 1], [3, 3, 3, 3, 3], [3, 3, 3, 3, 3]]","[11, 1, 12, 5, 1]",22,11,2,0.053,0.045,0.008,"[10, 11, 12, 13, 14, 0, 1, 2, 3, 4]",10,"extreme",5,5,36292,24,158,134,17907832553859336192,"attentional-mouselab",15,575793,2
"76","mouselab","False","[20, 21, 22, 22, 22, 23, 23, 23, 24, 24, 24]","[[7, 9, 1, 6, 7], [3, 6, 3, 2, 3], [6, 5, 3, 3, 3], [6, 6, 9, 8, 6], [2, 8, 8, 4, 6]]","[[3, 1, 1, 3, 3], [3, 3, 3, 3, 3], [3, 1, 3, 3, 3], [3, 3, 1, 3, 3], [1, 1, 3, 3, 3]]","[2, 3, 3, 2, 20]",28,12,2,0.066,0.0623333333333333,0.00366666666666667,"[20, 21, 22, 23, 24]",5,"extreme",5,5,20503,11,198,187,1.4230493109941e+19,"attentional-mouselab",16,597779,2
"77","mouselab","False","[15, 15, 15, 16, 16, 16, 17, 17, 17, 18, 18, 19, 19, 19, 12, 13, 13, 13, 14, 14, 14, 11, 11, 11, 10, 10, 10]","[[3, 4, 4, 4, 6], [7, 5, 6, 7, 4], [6, 5, 5, 4, 5], [3, 6, 5, 6, 3], [4, 4, 8, 5, 5]]","[[3, 3, 3, 3, 3], [3, 1, 3, 1, 3], [3, 3, 1, 3, 3], [3, 1, 3, 1, 3], [3, 3, 1, 3, 3]]","[6, 4, 7, 9, 4]",8,13,1,0.05,0.042,0.008,"[15, 16, 17, 18, 19, 12, 13, 14, 11, 10]",10,"greedy",5,5,34239,24,149,125,16301810499302447104,"attentional-mouselab",17,633253,2
"78","mouselab","False","[22, 21, 21, 21, 20, 20, 20, 23, 23, 23, 24, 24, 24]","[[2, 7, 2, 5, 5], [3, 4, 3, 4, 4], [6, 5, 5, 5, 6], [6, 5, 5, 6, 3], [3, 2, 6, 8, 6]]","[[3, 3, 3, 3, 3], [3, 1, 1, 3, 3], [1, 3, 3, 3, 3], [1, 3, 3, 3, 1], [3, 3, 1, 3, 3]]","[6, 4, 4, 7, 9]",8,14,3,0.06,0.0556666666666667,0.00433333333333333,"[22, 21, 20, 23, 24]",5,"random",5,5,12797,13,180,167,6068604270688154624,"attentional-mouselab",18,647196,2
"79","mouselab","False","[3, 4, 2, 1, 0, 1, 2, 1, 0, 2, 0]","[[4, 6, 6, 5, 7], [6, 4, 5, 3, 4], [6, 6, 4, 4, 5], [4, 4, 6, 2, 3], [4, 5, 4, 6, 5]]","[[3, 3, 3, 1, 1], [3, 3, 1, 3, 3], [3, 1, 3, 3, 3], [3, 3, 3, 1, 1], [3, 3, 3, 3, 3]]","[10, 6, 3, 5, 6]",8,15,4,0.051,0.0473333333333333,0.00366666666666667,"[3, 4, 1, 2, 0]",5,"greedy",5,5,11847,11,154,143,13824861082421475328,"attentional-mouselab",19,660246,2
"80","mouselab","False","[5, 5, 6, 6, 7, 7, 8, 9, 7, 6, 5]","[[5, 2, 2, 5, 5], [5, 7, 6, 8, 3], [5, 5, 6, 7, 7], [4, 5, 6, 6, 7], [7, 7, 6, 5, 5]]","[[1, 1, 1, 3, 3], [3, 3, 3, 1, 1], [3, 1, 3, 3, 3], [3, 3, 3, 3, 3], [3, 3, 3, 3, 3]]","[4, 13, 3, 6, 4]",14,16,3,0.067,0.0633333333333333,0.00366666666666667,"[8, 9, 7, 6, 5]",5,"extreme",5,5,9709,11,201,190,3584725776681349632,"attentional-mouselab",20,671140,2
"81","mouselab","False","[5, 5, 5, 6, 6, 6, 7, 7, 7, 8, 8, 8, 9, 9, 9]","[[3, 7, 7, 5, 6], [5, 6, 7, 3, 5], [5, 3, 3, 5, 9], [3, 0, 8, 3, 7], [6, 3, 5, 9, 5]]","[[3, 3, 3, 3, 3], [3, 3, 3, 3, 3], [1, 3, 3, 3, 3], [1, 1, 3, 3, 1], [1, 1, 3, 3, 3]]","[4, 13, 3, 8, 2]",18,17,2,0.067,0.062,0.005,"[5, 6, 7, 8, 9]",5,"random",5,5,9991,15,202,187,14496785868715089920,"attentional-mouselab",21,682286,2
"82","mouselab","False","[0, 0, 0, 1, 1, 1, 2, 2, 2, 3, 3, 3, 4, 4, 4]","[[4, 2, 5, 2, 2], [4, 5, 4, 6, 3], [5, 3, 5, 2, 8], [2, 4, 4, 8, 5], [4, 5, 4, 6, 4]]","[[3, 3, 3, 3, 3], [3, 3, 3, 3, 3], [3, 3, 1, 1, 1], [3, 1, 1, 1, 3], [3, 3, 3, 3, 3]]","[13, 3, 8, 3, 3]",18,18,2,0.047,0.042,0.005,"[0, 1, 2, 3, 4]",5,"extreme",5,5,9389,15,141,126,10099519005098719232,"attentional-mouselab",22,693936,2
"83","mouselab","False","[5, 5, 5, 6, 6, 6, 7, 7, 7, 8, 8, 8, 9, 9, 9]","[[5, 4, 9, 5, 2], [7, 5, 6, 5, 2], [4, 6, 8, 4, 3], [1, 8, 5, 7, 7], [6, 3, 3, 8, 10]]","[[3, 1, 1, 1, 3], [3, 3, 3, 3, 3], [3, 3, 1, 3, 3], [1, 3, 3, 3, 3], [3, 3, 3, 3, 1]]","[1, 11, 6, 6, 6]",10,19,0,0.049,0.044,0.005,"[5, 6, 7, 8, 9]",5,"extreme",5,5,8059,15,148,133,5486133634733591552,"attentional-mouselab",23,703044,2
"84","mouselab","False","[10, 10, 10, 11, 11, 11, 12, 12, 12, 13, 13, 13, 14, 14, 14]","[[6, 4, 5, 2, 9], [5, 5, 7, 4, 2], [6, 4, 5, 8, 7], [2, 7, 7, 4, 8], [4, 3, 3, 6, 6]]","[[3, 1, 3, 3, 3], [1, 3, 3, 3, 1], [3, 3, 3, 3, 3], [1, 1, 3, 3, 3], [3, 1, 3, 3, 3]]","[2, 3, 13, 3, 9]",20,20,3,0.062,0.057,0.005,"[10, 11, 12, 13, 14]",5,"random",5,5,8205,15,186,171,1.8385075632496e+19,"attentional-mouselab",24,712074,2
"85","mouselab","False","[8]","[[4, 4, 5, 7, 4], [8, 5, 6, 8, 6], [9, 2, 3, 6, 5], [6, 7, 6, 6, 5], [7, 7, 0, 2, 6]]","[[3, 3, 3, 3, 3], [3, 3, 3, 1, 3], [3, 3, 3, 3, 3], [1, 1, 3, 3, 3], [1, 3, 1, 3, 1]]","[5, 14, 1, 7, 3]",18,21,3,0.067,0.0666666666666667,0.000333333333333333,"[8]",1,"random",5,5,4053,1,201,200,13186851384954365952,"attentional-mouselab",25,717458,2
"86","mouselab","False","[14]","[[5, 3, 3, 2, 7], [4, 4, 6, 7, 4], [5, 8, 3, 4, 8], [3, 4, 6, 4, 5], [6, 4, 4, 1, 7]]","[[3, 3, 3, 3, 1], [1, 3, 3, 3, 3], [3, 3, 3, 3, 1], [1, 3, 3, 3, 3], [1, 3, 3, 1, 3]]","[6, 1, 10, 6, 7]",10,22,4,0.068,0.0676666666666667,0.000333333333333333,"[14]",1,"random",5,5,2673,1,205,204,13142385956071272448,"attentional-mouselab",26,722016,2
"87","mouselab","False","[12, 10, 10, 10]","[[9, 7, 3, 4, 3], [3, 7, 8, 5, 4], [9, 5, 6, 5, 4], [4, 9, 4, 7, 4], [5, 3, 5, 4, 4]]","[[1, 3, 3, 3, 3], [3, 1, 3, 3, 3], [3, 3, 1, 3, 3], [3, 1, 3, 3, 1], [3, 1, 3, 3, 3]]","[2, 6, 12, 7, 3]",14,23,0,0.062,0.0606666666666667,0.00133333333333333,"[12, 10]",2,"greedy",5,5,4821,4,187,183,13556215619927314432,"attentional-mouselab",27,727800,2
"88","mouselab","False","[16, 18]","[[8, 3, 6, 3, 7], [6, 5, 3, 4, 3], [5, 2, 5, 4, 3], [4, 6, 2, 8, 6], [5, 3, 3, 7, 4]]","[[1, 3, 3, 3, 3], [1, 3, 3, 3, 3], [3, 3, 3, 3, 3], [3, 1, 3, 1, 3], [1, 3, 3, 1, 3]]","[2, 7, 7, 8, 6]",8,24,3,0.056,0.0553333333333333,0.000666666666666667,"[16, 18]",2,"greedy",5,5,5341,2,168,166,11767307063994867712,"attentional-mouselab",28,734232,2
"89","mouselab","False","[2, 0]","[[10, 5, 7, 6, 5], [5, 3, 8, 4, 7], [4, 6, 5, 6, 5], [6, 3, 5, 4, 5], [4, 4, 5, 7, 3]]","[[1, 3, 1, 3, 1], [3, 3, 1, 3, 3], [3, 3, 3, 3, 3], [3, 3, 1, 3, 3], [3, 3, 3, 1, 3]]","[8, 7, 9, 2, 4]",12,25,0,0.06,0.0593333333333333,0.000666666666666667,"[2, 0]",2,"greedy",5,5,7837,2,179,177,13505955623875530752,"attentional-mouselab",29,743440,2
"90","mouselab","False","[9]","[[3, 3, 7, 6, 4], [7, 7, 5, 6, 7], [3, 7, 7, 8, 6], [5, 2, 5, 8, 6], [5, 3, 4, 3, 8]]","[[3, 3, 3, 1, 3], [3, 3, 3, 3, 1], [3, 3, 3, 1, 3], [3, 3, 3, 1, 3], [3, 1, 3, 3, 1]]","[6, 16, 4, 2, 2]",20,26,4,0.063,0.0626666666666667,0.000333333333333333,"[9]",1,"greedy",5,5,4853,1,188,187,6555900605606825984,"attentional-mouselab",30,749456,2
"91","mouselab","False","[3, 0]","[[5, 4, 2, 7, 7], [8, 4, 4, 4, 7], [6, 6, 4, 4, 5], [4, 5, 4, 6, 3], [5, 2, 5, 4, 5]]","[[1, 3, 3, 1, 3], [3, 1, 3, 3, 3], [3, 3, 3, 3, 1], [3, 3, 3, 3, 1], [3, 3, 1, 3, 3]]","[11, 2, 4, 9, 4]",16,27,3,0.057,0.0563333333333333,0.000666666666666667,"[3, 0]",2,"random",5,5,4021,2,171,169,1803659296365908224,"attentional-mouselab",31,754704,2
"92","mouselab","False","[1, 3]","[[5, 8, 5, 0, 6], [6, 4, 5, 4, 5], [5, 7, 4, 4, 4], [2, 9, 3, 3, 5], [6, 4, 3, 5, 7]]","[[3, 1, 3, 1, 3], [3, 3, 3, 3, 1], [3, 1, 3, 3, 3], [1, 1, 3, 3, 3], [3, 3, 3, 3, 3]]","[13, 2, 5, 9, 1]",20,28,1,0.077,0.0763333333333333,0.000666666666666667,"[1, 3]",2,"extreme",5,5,2979,2,232,230,6057832938197504000,"attentional-mouselab",32,758599,2
"93","mouselab","False","[16]","[[6, 3, 5, 8, 6], [3, 8, 6, 7, 1], [7, 4, 4, 3, 7], [5, 8, 7, 4, 6], [4, 5, 7, 6, 3]]","[[1, 3, 3, 3, 3], [3, 3, 3, 1, 1], [1, 3, 1, 3, 3], [3, 1, 3, 3, 3], [3, 3, 3, 3, 3]]","[4, 6, 2, 17, 1]",22,29,1,0.07,0.0696666666666667,0.000333333333333333,"[16]",1,"random",5,5,3059,1,209,208,12604290666172399616,"attentional-mouselab",33,762780,2
"94","mouselab","False","[18, 19, 19, 19, 17, 17, 17, 16, 16, 16, 15, 15, 15, 10, 12, 12, 12, 11, 13, 13, 13, 14, 14, 14]","[[4, 3, 7, 5, 4], [1, 5, 6, 8, 4], [3, 5, 4, 5, 5], [6, 5, 6, 5, 2], [3, 2, 4, 4, 5]]","[[3, 1, 3, 3, 3], [3, 1, 3, 3, 1], [1, 1, 3, 3, 3], [3, 3, 3, 1, 3], [3, 3, 3, 3, 3]]","[5, 3, 10, 11, 1]",18,30,1,0.046,0.038,0.008,"[18, 19, 17, 16, 15, 10, 12, 11, 13, 14]",10,"random",5,5,25159,24,137,113,2193251300175253248,"attentional-mouselab",34,788846,2
"95","mouselab","False","[20]","[[7, 8, 7, 6, 4], [5, 2, 7, 5, 4], [5, 5, 4, 5, 5], [4, 3, 7, 7, 7], [7, 3, 6, 3, 5]]","[[3, 3, 1, 3, 3], [3, 3, 1, 3, 3], [3, 1, 3, 3, 3], [3, 3, 1, 3, 3], [1, 3, 1, 3, 3]]","[5, 4, 7, 7, 7]",6,31,0,0.056,0.0556666666666667,0.000333333333333333,"[20]",1,"greedy",5,5,6471,1,167,166,16351506420565647360,"attentional-mouselab",35,796704,2
"96","mouselab","False","[8, 14, 5, 6, 5, 5, 6, 6]","[[3, 2, 4, 2, 6], [6, 7, 4, 4, 3], [3, 7, 3, 4, 2], [5, 7, 5, 5, 5], [4, 2, 6, 7, 5]]","[[1, 1, 3, 1, 3], [3, 3, 3, 1, 3], [3, 3, 3, 3, 1], [3, 3, 3, 3, 3], [1, 3, 3, 3, 3]]","[5, 9, 7, 8, 1]",12,32,1,0.06,0.0573333333333333,0.00266666666666667,"[8, 14, 5, 6]",4,"extreme",5,5,14951,8,180,172,12699019688080701440,"attentional-mouselab",36,812610,2
"97","mouselab","True","[6, 21, 20, 5, 5, 5, 7, 7, 7, 9, 9, 9, 8, 8, 8, 23, 23, 23]","[[6, 7, 5, 4, 7], [5, 3, 5, 7, 3], [2, 6, 7, 7, 3], [7, 5, 3, 3, 6], [8, 5, 4, 1, 5]]","[[3, 1, 3, 1, 3], [3, 1, 3, 3, 3], [3, 3, 3, 3, 3], [3, 1, 3, 3, 3], [1, 1, 3, 3, 3]]","[1, 13, 2, 6, 8]",18,1,0,0.06,0.054,0.006,"[6, 21, 20, 5, 7, 9, 8, 23]",8,"random",5,5,42546,18,181,163,5790454138643733504,"attentional-mouselab",4,85320,3
"98","mouselab","True","[5, 5, 16, 18, 2, 0, 0, 0, 3, 3, 3, 15, 15, 15, 8, 8, 8, 1, 1, 1]","[[7, 6, 5, 6, 7], [6, 4, 6, 4, 6], [2, 4, 4, 6, 4], [4, 5, 7, 6, 8], [4, 4, 4, 5, 6]]","[[3, 3, 1, 3, 3], [1, 3, 3, 3, 3], [3, 3, 3, 3, 3], [3, 1, 3, 1, 3], [3, 3, 3, 1, 1]]","[9, 8, 1, 8, 4]",14,2,0,0.054,0.0476666666666667,0.00633333333333333,"[5, 16, 18, 2, 0, 3, 15, 8, 1]",9,"random",5,5,29687,19,161,142,17304064741728716800,"attentional-mouselab",5,123030,3
"99","mouselab","False","[18, 13, 11, 21]","[[9, 1, 3, 6, 1], [7, 5, 0, 6, 3], [6, 5, 4, 6, 5], [7, 7, 3, 6, 5], [4, 7, 5, 3, 3]]","[[3, 3, 3, 3, 3], [1, 3, 3, 3, 1], [3, 1, 3, 1, 3], [3, 3, 3, 1, 3], [3, 1, 3, 3, 3]]","[2, 2, 6, 14, 6]",16,3,3,0.054,0.0526666666666667,0.00133333333333333,"[18, 13, 11, 21]",4,"random",5,5,12305,4,162,158,1.2592459885594e+19,"attentional-mouselab",7,141499,3
"100","mouselab","False","[15, 10, 10, 10, 11, 11, 11, 12, 12, 12, 13, 13, 13, 14, 14, 14]","[[4, 4, 4, 5, 5], [9, 5, 8, 6, 3], [5, 6, 3, 5, 5], [4, 3, 2, 4, 4], [4, 5, 8, 5, 4]]","[[3, 3, 1, 1, 1], [3, 3, 3, 3, 3], [3, 3, 3, 3, 3], [1, 3, 3, 3, 3], [3, 1, 3, 3, 1]]","[4, 4, 14, 6, 2]",16,4,1,0.049,0.0436666666666667,0.00533333333333333,"[15, 10, 11, 12, 13, 14]",6,"random",5,5,15693,16,148,132,5217342859475200000,"attentional-mouselab",8,160577,3
"101","mouselab","False","[21, 9, 14]","[[2, 5, 3, 5, 5], [2, 2, 5, 6, 8], [3, 5, 5, 7, 7], [5, 6, 2, 4, 3], [4, 5, 4, 4, 7]]","[[3, 3, 1, 3, 3], [3, 3, 3, 3, 1], [3, 3, 3, 3, 1], [3, 3, 3, 3, 1], [3, 1, 3, 1, 3]]","[3, 8, 8, 3, 8]",12,5,4,0.067,0.066,0.001,"[21, 9, 14]",3,"random",5,5,8078,3,200,197,9876276916018237440,"attentional-mouselab",9,171061,3
"102","mouselab","False","[22]","[[5, 3, 5, 5, 8], [8, 5, 3, 7, 8], [6, 2, 7, 7, 4], [1, 5, 5, 8, 5], [4, 4, 9, 4, 6]]","[[3, 3, 3, 3, 3], [1, 3, 3, 3, 1], [3, 3, 3, 1, 3], [3, 3, 3, 1, 1], [3, 3, 1, 3, 3]]","[2, 2, 7, 2, 17]",24,6,2,0.076,0.0756666666666667,0.000333333333333333,"[22]",1,"greedy",5,5,4577,1,228,227,1.5206285415028e+19,"attentional-mouselab",10,178115,3
"103","mouselab","False","[22, 24]","[[7, 5, 4, 6, 8], [3, 5, 6, 6, 4], [6, 7, 4, 7, 4], [7, 8, 5, 7, 3], [5, 6, 7, 6, 8]]","[[3, 3, 3, 3, 1], [3, 3, 3, 3, 3], [3, 3, 3, 3, 3], [3, 1, 1, 1, 3], [3, 3, 1, 3, 1]]","[5, 4, 9, 2, 10]",14,7,4,0.059,0.0583333333333333,0.000666666666666667,"[22, 24]",2,"extreme",5,5,6758,2,178,176,8134400110375933952,"attentional-mouselab",11,186521,3
"104","mouselab","False","[18]","[[7, 7, 5, 3, 5], [4, 5, 5, 9, 5], [2, 6, 3, 6, 7], [6, 8, 2, 7, 6], [4, 5, 5, 4, 7]]","[[3, 3, 1, 3, 1], [3, 3, 1, 3, 3], [3, 3, 1, 3, 1], [3, 3, 3, 1, 3], [3, 3, 3, 3, 3]]","[6, 1, 6, 14, 3]",16,8,3,0.058,0.0576666666666667,0.000333333333333333,"[18]",1,"random",5,5,7102,1,173,172,12634240091604267008,"attentional-mouselab",12,195128,3
"105","mouselab","False","[20, 24, 4]","[[7, 3, 3, 5, 7], [8, 6, 8, 5, 7], [7, 5, 2, 3, 7], [4, 3, 6, 5, 3], [4, 6, 4, 5, 7]]","[[1, 3, 3, 1, 1], [3, 1, 3, 3, 3], [3, 3, 3, 3, 3], [3, 3, 3, 3, 3], [1, 3, 3, 3, 1]]","[8, 3, 1, 7, 11]",16,9,4,0.061,0.06,0.001,"[20, 24, 4]",3,"random",5,5,5218,3,182,179,11142934785048100864,"attentional-mouselab",13,201841,3
"106","mouselab","False","[9, 13, 8, 8, 8]","[[5, 6, 5, 6, 7], [5, 4, 6, 3, 2], [3, 4, 6, 7, 6], [7, 5, 5, 5, 3], [5, 6, 5, 10, 7]]","[[1, 3, 3, 3, 3], [3, 3, 3, 3, 1], [3, 3, 3, 1, 3], [1, 3, 3, 3, 3], [3, 1, 3, 1, 3]]","[1, 15, 9, 4, 1]",24,10,3,0.048,0.0463333333333333,0.00166666666666667,"[9, 13, 8]",3,"extreme",5,5,13944,5,144,139,4810340774590892032,"attentional-mouselab",14,217441,3
"107","mouselab","False","[15, 18]","[[2, 5, 5, 4, 6], [7, 4, 4, 6, 6], [4, 3, 5, 4, 7], [4, 3, 4, 8, 5], [4, 6, 5, 6, 7]]","[[3, 3, 3, 3, 3], [1, 3, 3, 3, 3], [3, 3, 3, 3, 1], [1, 3, 3, 1, 3], [3, 1, 3, 3, 1]]","[7, 5, 3, 13, 2]",16,11,3,0.062,0.0613333333333333,0.000666666666666667,"[15, 18]",2,"random",5,5,3954,2,186,184,11050529541466263552,"attentional-mouselab",15,222722,3
"108","mouselab","False","[0, 10]","[[6, 3, 5, 3, 7], [6, 6, 7, 6, 3], [9, 9, 6, 7, 2], [5, 6, 3, 3, 6], [5, 4, 4, 5, 2]]","[[1, 3, 3, 3, 3], [1, 1, 3, 3, 3], [1, 3, 3, 3, 3], [1, 3, 3, 3, 3], [3, 3, 3, 3, 1]]","[10, 5, 9, 5, 1]",14,12,0,0.067,0.0663333333333333,0.000666666666666667,"[0, 10]",2,"greedy",5,5,3687,2,201,199,1.1832157126158e+19,"attentional-mouselab",16,227714,3
"109","mouselab","False","[15, 18, 0, 3, 3, 3]","[[3, 4, 6, 6, 2], [4, 7, 3, 4, 8], [7, 7, 5, 4, 6], [4, 2, 4, 4, 5], [6, 6, 8, 6, 2]]","[[1, 1, 3, 3, 3], [1, 3, 3, 3, 3], [1, 3, 3, 3, 3], [1, 3, 3, 1, 3], [3, 3, 3, 3, 3]]","[7, 3, 3, 14, 3]",18,13,3,0.047,0.045,0.002,"[15, 18, 0, 3]",4,"random",5,5,7352,6,140,134,2238814667461280256,"attentional-mouselab",17,236971,3
"110","mouselab","False","[15, 0]","[[10, 6, 7, 6, 7], [3, 5, 4, 8, 3], [7, 4, 6, 7, 4], [8, 6, 5, 3, 5], [5, 5, 6, 3, 6]]","[[1, 3, 3, 3, 1], [3, 3, 3, 1, 3], [1, 1, 3, 3, 3], [1, 3, 3, 3, 3], [3, 3, 3, 3, 3]]","[10, 5, 1, 10, 4]",16,14,0,0.074,0.0733333333333333,0.000666666666666667,"[15, 0]",2,"extreme",5,5,5429,2,222,220,14535916847150473216,"attentional-mouselab",18,244682,3
"111","mouselab","False","[22, 22, 22, 21, 21, 21, 24, 24, 24, 11, 1]","[[5, 8, 7, 3, 5], [5, 5, 5, 7, 4], [4, 4, 7, 7, 6], [6, 3, 2, 2, 6], [7, 5, 4, 2, 5]]","[[3, 1, 3, 3, 3], [3, 3, 3, 3, 3], [3, 1, 1, 3, 1], [3, 3, 1, 1, 3], [3, 3, 3, 3, 3]]","[5, 9, 5, 1, 10]",14,15,1,0.053,0.0493333333333333,0.00366666666666667,"[22, 21, 24, 11, 1]",5,"extreme",5,5,18774,11,158,147,574397851280061568,"attentional-mouselab",19,265026,3
"112","mouselab","False","[3, 4, 8, 9]","[[6, 5, 5, 1, 1], [4, 3, 6, 4, 0], [8, 6, 3, 5, 3], [7, 4, 6, 3, 6], [7, 7, 3, 4, 3]]","[[3, 3, 3, 1, 1], [3, 3, 3, 1, 1], [3, 3, 1, 3, 3], [3, 3, 3, 3, 3], [3, 3, 1, 3, 3]]","[20, 4, 2, 3, 1]",28,16,3,0.02,0.0186666666666667,0.00133333333333333,"[3, 4, 8, 9]",4,"extreme",5,5,7258,4,59,55,9708128652112918528,"attentional-mouselab",20,274150,3
"113","mouselab","False","[20, 22, 5]","[[6, 5, 5, 4, 5], [7, 7, 5, 3, 6], [6, 6, 3, 6, 0], [5, 7, 6, 7, 9], [9, 3, 6, 4, 5]]","[[3, 3, 3, 3, 3], [1, 3, 3, 3, 3], [1, 3, 3, 3, 1], [3, 3, 1, 3, 3], [1, 3, 1, 3, 3]]","[10, 6, 1, 3, 10]",16,17,0,0.071,0.07,0.001,"[20, 22, 5]",3,"greedy",5,5,7374,3,213,210,10087389533550698496,"attentional-mouselab",21,282618,3
"114","mouselab","False","[4, 24, 19]","[[3, 4, 3, 6, 3], [5, 7, 6, 5, 4], [5, 4, 4, 6, 4], [4, 5, 5, 2, 7], [5, 6, 5, 5, 8]]","[[3, 3, 3, 3, 1], [3, 3, 3, 3, 3], [3, 3, 3, 3, 3], [3, 3, 1, 1, 1], [3, 3, 3, 1, 1]]","[11, 4, 2, 6, 7]",12,18,4,0.052,0.051,0.001,"[4, 24, 19]",3,"extreme",5,5,6898,3,155,152,15159880995206422528,"attentional-mouselab",22,290806,3
"115","mouselab","False","[15, 17, 14]","[[6, 8, 5, 4, 9], [7, 6, 7, 4, 6], [6, 5, 7, 5, 0], [5, 4, 6, 4, 5], [6, 5, 8, 8, 6]]","[[3, 3, 3, 3, 3], [3, 3, 1, 3, 3], [3, 1, 3, 3, 1], [1, 3, 1, 3, 3], [3, 1, 3, 3, 3]]","[4, 2, 8, 10, 6]",12,19,2,0.066,0.065,0.001,"[15, 17, 14]",3,"random",5,5,8264,3,198,195,8131144188909565952,"attentional-mouselab",23,300415,3
"116","mouselab","False","[16, 17, 18, 1, 1, 1, 3, 3, 3]","[[5, 4, 5, 3, 5], [5, 4, 6, 2, 6], [7, 7, 9, 4, 8], [4, 6, 2, 4, 5], [3, 7, 3, 8, 2]]","[[3, 3, 3, 3, 3], [3, 3, 3, 3, 3], [3, 3, 1, 3, 3], [3, 1, 1, 1, 3], [3, 1, 1, 3, 3]]","[11, 6, 2, 10, 1]",18,20,1,0.05,0.047,0.003,"[16, 17, 18, 1, 3]",5,"greedy",5,5,13289,9,149,140,5823177038562571264,"attentional-mouselab",24,314898,3
"117","mouselab","False","[9, 5, 10, 0, 0, 0]","[[5, 5, 4, 5, 10], [4, 3, 5, 4, 4], [7, 8, 4, 7, 5], [5, 4, 7, 9, 4], [3, 4, 7, 6, 3]]","[[3, 3, 3, 3, 3], [1, 3, 3, 3, 1], [1, 3, 3, 3, 3], [1, 3, 3, 3, 3], [1, 3, 1, 3, 3]]","[12, 7, 6, 3, 2]",14,21,0,0.05,0.048,0.002,"[9, 5, 10, 0]",4,"random",5,5,7663,6,151,145,5406180987374297088,"attentional-mouselab",25,323969,3
"118","mouselab","False","[7, 5, 10, 10, 10]","[[5, 2, 6, 7, 2], [7, 5, 3, 8, 8], [4, 7, 7, 3, 6], [7, 4, 8, 5, 5], [7, 6, 8, 4, 2]]","[[3, 3, 1, 3, 3], [1, 3, 1, 3, 3], [3, 3, 1, 3, 3], [3, 3, 1, 3, 3], [3, 3, 3, 1, 3]]","[3, 15, 6, 4, 2]",18,22,0,0.062,0.0603333333333333,0.00166666666666667,"[7, 5, 10]",3,"greedy",5,5,7084,5,186,181,9193070766328639488,"attentional-mouselab",26,332398,3
"119","mouselab","False","[24, 14, 14, 14]","[[7, 4, 7, 9, 6], [5, 6, 3, 3, 7], [5, 4, 6, 7, 7], [7, 2, 6, 3, 4], [6, 6, 3, 4, 6]]","[[1, 3, 3, 1, 3], [1, 3, 3, 3, 3], [3, 3, 3, 3, 3], [1, 1, 3, 3, 3], [3, 3, 3, 3, 1]]","[1, 7, 10, 1, 11]",20,23,4,0.065,0.0636666666666667,0.00133333333333333,"[24, 14]",2,"extreme",5,5,4983,4,195,191,7205724724100445184,"attentional-mouselab",27,338555,3
"120","mouselab","False","[5, 9, 4, 4, 4]","[[5, 3, 5, 4, 6], [2, 6, 5, 3, 5], [7, 6, 5, 7, 5], [2, 7, 5, 4, 6], [7, 1, 3, 5, 3]]","[[3, 3, 3, 3, 3], [1, 3, 3, 3, 1], [1, 3, 3, 3, 3], [1, 3, 1, 3, 3], [3, 1, 3, 3, 3]]","[10, 10, 5, 2, 3]",16,24,4,0.052,0.0503333333333333,0.00166666666666667,"[5, 9, 4]",3,"extreme",5,5,5312,5,156,151,5329986013490376704,"attentional-mouselab",28,345086,3
"121","mouselab","False","[1, 4, 9, 9, 9]","[[7, 2, 3, 4, 7], [5, 3, 4, 6, 5], [1, 5, 4, 9, 7], [6, 5, 6, 7, 5], [5, 4, 7, 6, 7]]","[[3, 1, 3, 3, 1], [3, 3, 3, 3, 3], [3, 1, 1, 1, 3], [3, 3, 3, 3, 3], [3, 3, 3, 3, 1]]","[7, 8, 6, 6, 3]",6,25,4,0.061,0.0593333333333333,0.00166666666666667,"[1, 4, 9]",3,"greedy",5,5,5600,5,182,177,7944417417070702592,"attentional-mouselab",29,351716,3
"122","mouselab","False","[8, 9, 3, 3, 3]","[[4, 5, 4, 5, 6], [7, 3, 5, 8, 3], [4, 4, 7, 8, 5], [4, 4, 7, 3, 5], [3, 4, 4, 7, 5]]","[[3, 3, 3, 3, 3], [3, 3, 3, 1, 1], [3, 3, 3, 1, 3], [3, 3, 1, 3, 3], [1, 3, 3, 1, 3]]","[11, 7, 5, 5, 2]",12,26,3,0.06,0.0583333333333333,0.00166666666666667,"[8, 9, 3]",3,"greedy",5,5,6508,5,180,175,4103790811733905920,"attentional-mouselab",30,359320,3
"123","mouselab","False","[13, 14, 9, 9, 9]","[[3, 6, 5, 1, 3], [5, 8, 5, 5, 4], [6, 5, 6, 5, 7], [10, 3, 6, 3, 8], [7, 5, 6, 5, 4]]","[[3, 3, 3, 3, 3], [3, 3, 3, 3, 3], [3, 3, 3, 1, 1], [3, 3, 1, 1, 3], [3, 1, 3, 1, 3]]","[9, 9, 5, 3, 4]",12,27,4,0.046,0.0443333333333333,0.00166666666666667,"[13, 14, 9]",3,"random",5,5,5889,5,138,133,17267536881199783936,"attentional-mouselab",31,366295,3
"124","mouselab","False","[22, 23, 24]","[[3, 4, 5, 10, 7], [6, 4, 5, 5, 4], [4, 8, 3, 5, 4], [1, 5, 5, 6, 3], [6, 4, 6, 4, 8]]","[[3, 3, 3, 1, 3], [3, 1, 3, 3, 3], [3, 3, 3, 3, 3], [1, 3, 3, 3, 3], [3, 3, 1, 1, 1]]","[6, 6, 2, 6, 10]",8,28,4,0.057,0.056,0.001,"[22, 23, 24]",3,"extreme",5,5,6283,3,172,169,30067924885038152,"attentional-mouselab",32,373522,3
"125","mouselab","False","[9, 6, 1, 1, 1]","[[7, 6, 6, 8, 4], [8, 9, 4, 3, 1], [5, 7, 2, 6, 5], [9, 5, 5, 7, 1], [8, 2, 5, 3, 5]]","[[3, 3, 3, 3, 3], [1, 1, 3, 3, 1], [3, 3, 3, 3, 1], [1, 3, 3, 3, 1], [3, 3, 3, 3, 3]]","[13, 6, 2, 2, 7]",16,29,1,0.057,0.0553333333333333,0.00166666666666667,"[9, 6, 1]",3,"extreme",5,5,7953,5,170,165,10531175009633925120,"attentional-mouselab",33,383382,3
"126","mouselab","False","[19, 6, 24, 24, 24]","[[5, 2, 4, 6, 1], [4, 5, 5, 6, 4], [5, 4, 4, 7, 6], [5, 4, 1, 5, 7], [3, 5, 5, 6, 8]]","[[3, 1, 3, 3, 1], [3, 1, 3, 3, 3], [3, 3, 3, 1, 1], [3, 3, 3, 3, 1], [3, 3, 3, 3, 3]]","[1, 5, 4, 5, 15]",18,30,4,0.067,0.0653333333333333,0.00166666666666667,"[19, 6, 24]",3,"greedy",5,5,6406,5,200,195,4565372338938212864,"attentional-mouselab",34,391982,3
"127","mouselab","False","[8, 8, 8, 23]","[[2, 7, 3, 9, 2], [3, 6, 5, 4, 6], [4, 2, 7, 5, 5], [5, 6, 3, 5, 3], [8, 7, 6, 7, 9]]","[[3, 3, 3, 1, 3], [3, 3, 3, 3, 3], [3, 3, 3, 3, 3], [3, 3, 1, 3, 3], [1, 1, 3, 1, 1]]","[2, 13, 8, 2, 5]",18,31,3,0.052,0.0506666666666667,0.00133333333333333,"[8, 23]",2,"greedy",5,5,9454,4,155,151,5111992305554720768,"attentional-mouselab",35,402490,3
"128","mouselab","False","[13, 3, 3, 3]","[[3, 3, 3, 4, 5], [4, 5, 5, 7, 6], [5, 4, 4, 7, 1], [5, 7, 3, 2, 6], [7, 4, 6, 6, 3]]","[[3, 3, 3, 3, 3], [3, 3, 3, 1, 3], [3, 3, 3, 1, 3], [3, 1, 3, 3, 3], [3, 1, 1, 3, 1]]","[8, 4, 7, 5, 6]",6,32,3,0.052,0.0506666666666667,0.00133333333333333,"[13, 3]",2,"greedy",5,5,6218,4,155,151,779502173028782720,"attentional-mouselab",36,409990,3
"129","mouselab","True","[5, 5, 5, 7, 7, 7, 7, 4, 4, 4, 8, 8, 8, 8, 18, 14, 24, 11, 15, 21, 1, 1, 1, 1, 6, 6, 6, 6, 16, 16, 16, 2, 2, 2, 12, 12, 12, 17, 17, 17, 22, 22, 22, 13, 13, 13, 10, 10, 10, 20, 20, 20, 20, 23, 23, 23, 23, 19, 19, 19, 19, 4, 9, 9, 9, 3, 3, 3, 3]","[[5, 5, 7, 8, 5], [4, 4, 5, 3, 1], [3, 3, 9, 3, 6], [1, 4, 7, 6, 7], [6, 2, 6, 5, 7]]","[[3, 3, 3, 3, 3], [3, 3, 3, 3, 3], [3, 1, 3, 3, 1], [1, 3, 3, 1, 3], [3, 1, 3, 3, 1]]","[5, 3, 6, 6, 10]",8,1,2,0.069,0.049,0.02,"[5, 7, 4, 8, 18, 14, 24, 11, 15, 21, 1, 6, 16, 2, 12, 17, 22, 13, 10, 20, 23, 19, 9, 3]",24,"random",5,5,50788,60,206,146,1575377212769912576,"attentional-mouselab",4,127428,4
"130","mouselab","True","[0, 0, 0, 5, 10, 10, 10, 10, 15, 15, 15, 20, 20, 20]","[[7, 5, 4, 3, 5], [5, 5, 6, 1, 5], [2, 4, 6, 5, 7], [5, 7, 1, 6, 5], [4, 5, 5, 6, 5]]","[[3, 3, 3, 3, 3], [1, 3, 3, 3, 3], [3, 3, 1, 1, 3], [3, 1, 1, 3, 1], [3, 3, 3, 3, 3]]","[3, 5, 3, 15, 4]",18,2,0,0.048,0.0436666666666667,0.00433333333333333,"[0, 5, 10, 15, 20]",5,"random",5,5,10338,13,143,130,1889358731601123072,"attentional-mouselab",5,139181,4
"131","mouselab","False","[21, 17, 13, 8, 18, 18, 18, 18, 18, 23, 3, 3, 3, 3, 6, 6, 6, 6, 9, 9, 9, 14, 14, 14, 14, 19, 19, 19, 19, 24, 24, 24, 24, 4, 4, 4]","[[6, 4, 5, 4, 6], [5, 4, 7, 4, 6], [6, 6, 6, 4, 7], [6, 5, 4, 2, 4], [6, 5, 5, 7, 5]]","[[3, 3, 3, 3, 3], [1, 3, 3, 1, 3], [3, 3, 3, 1, 3], [3, 3, 1, 3, 3], [3, 1, 3, 1, 3]]","[1, 8, 6, 7, 8]",10,3,4,0.055,0.0453333333333333,0.00966666666666667,"[21, 17, 13, 8, 18, 23, 3, 6, 9, 14, 19, 24, 4]",13,"random",5,5,16072,29,164,135,3494131955680876032,"attentional-mouselab",7,158417,4
"132","mouselab","False","[0, 0, 0, 0, 5, 5, 5, 5, 10, 10, 10, 15, 15, 15, 15, 20, 20, 20]","[[7, 4, 6, 4, 6], [7, 5, 7, 6, 2], [4, 3, 5, 4, 5], [4, 5, 7, 5, 2], [5, 5, 3, 7, 8]]","[[3, 1, 3, 3, 3], [3, 1, 1, 3, 1], [3, 3, 3, 3, 3], [3, 3, 1, 3, 3], [3, 3, 3, 1, 3]]","[9, 2, 4, 4, 11]",16,4,0,0.055,0.05,0.005,"[0, 5, 10, 15, 20]",5,"greedy",5,5,7883,15,164,149,3141570453545939968,"attentional-mouselab",8,167398,4
"133","mouselab","False","[]","[[5, 7, 4, 4, 2], [5, 7, 3, 4, 6], [6, 1, 5, 5, 5], [4, 6, 6, 2, 7], [3, 6, 4, 3, 7]]","[[3, 3, 3, 1, 1], [3, 1, 3, 3, 3], [1, 3, 3, 3, 3], [3, 1, 3, 1, 3], [3, 3, 3, 3, 3]]","[1, 4, 11, 5, 9]",16,5,2,0.046,0.046,0,"[]",0,"random",5,5,2301,0,137,137,6565432419174811648,"attentional-mouselab",9,173832,4
"134","mouselab","False","[3, 3, 3, 2, 2, 2, 2]","[[4, 6, 4, 6, 7], [4, 4, 7, 6, 7], [2, 6, 6, 5, 3], [6, 5, 5, 3, 3], [6, 4, 6, 7, 5]]","[[1, 3, 3, 3, 1], [3, 3, 3, 3, 1], [3, 1, 3, 3, 3], [3, 3, 3, 3, 3], [3, 1, 3, 3, 1]]","[2, 11, 6, 3, 8]",14,6,3,0.058,0.056,0.002,"[3, 2]",2,"random",5,5,4862,6,173,167,13371526357057310720,"attentional-mouselab",10,180622,4
"135","mouselab","False","[4, 4, 4, 9, 9, 9, 14, 14, 14]","[[5, 4, 6, 5, 2], [4, 3, 4, 4, 8], [4, 3, 5, 4, 4], [5, 8, 6, 4, 4], [4, 4, 5, 5, 2]]","[[3, 3, 3, 3, 3], [1, 3, 1, 3, 1], [3, 1, 3, 1, 3], [3, 1, 3, 3, 3], [3, 3, 3, 3, 3]]","[1, 16, 2, 10, 1]",28,7,4,0.06,0.0576666666666667,0.00233333333333333,"[4, 9, 14]",3,"greedy",5,5,5580,7,180,173,16982077363855792128,"attentional-mouselab",11,187519,4
"136","mouselab","False","[11, 11, 11, 11, 13, 13, 13, 13, 8, 8, 8]","[[7, 3, 3, 5, 7], [8, 6, 8, 5, 7], [7, 5, 2, 3, 7], [4, 3, 6, 5, 3], [4, 6, 4, 5, 7]]","[[3, 3, 3, 3, 1], [1, 3, 1, 3, 3], [3, 3, 1, 3, 3], [3, 3, 3, 3, 3], [1, 3, 3, 3, 1]]","[2, 2, 5, 3, 18]",24,8,1,0.053,0.05,0.003,"[11, 13, 8]",3,"extreme",5,5,6280,9,160,151,11142934785048100864,"attentional-mouselab",12,195517,4
"137","mouselab","False","[5, 5, 5, 5, 10, 10, 10, 10]","[[6, 6, 5, 6, 2], [7, 2, 5, 7, 5], [6, 7, 3, 5, 5], [5, 5, 2, 7, 5], [4, 7, 5, 6, 5]]","[[3, 3, 3, 3, 1], [3, 1, 1, 1, 3], [3, 3, 3, 3, 3], [3, 3, 1, 3, 1], [3, 3, 3, 3, 3]]","[17, 6, 2, 3, 2]",22,9,0,0.06,0.058,0.002,"[5, 10]",2,"extreme",5,5,3559,6,179,173,2712173566615869440,"attentional-mouselab",13,201420,4
"138","mouselab","False","[]","[[5, 7, 4, 6, 4], [6, 4, 6, 2, 2], [4, 3, 4, 4, 4], [5, 7, 3, 7, 1], [6, 2, 6, 3, 6]]","[[3, 3, 3, 3, 3], [3, 1, 1, 1, 3], [3, 3, 3, 3, 3], [3, 3, 3, 1, 3], [3, 3, 1, 1, 3]]","[7, 10, 8, 3, 2]",14,10,4,0.032,0.032,0,"[]",0,"random",5,5,1878,0,95,95,696008842448207744,"attentional-mouselab",14,204478,4
"139","mouselab","False","[]","[[5, 7, 4, 4, 6], [7, 6, 6, 7, 5], [8, 6, 5, 6, 5], [3, 5, 3, 3, 7], [2, 4, 6, 3, 4]]","[[3, 3, 3, 3, 3], [3, 3, 1, 3, 1], [3, 3, 1, 1, 3], [3, 3, 3, 3, 1], [3, 3, 3, 3, 1]]","[11, 3, 14, 1, 1]",26,11,0,0.064,0.064,0,"[]",0,"random",5,5,1040,0,193,193,1654749258641092608,"attentional-mouselab",15,206676,4
"140","mouselab","False","[]","[[5, 5, 5, 4, 5], [7, 4, 7, 3, 5], [4, 5, 3, 5, 6], [6, 7, 6, 8, 7], [6, 6, 1, 2, 6]]","[[3, 3, 3, 1, 3], [3, 3, 3, 1, 3], [3, 3, 3, 3, 3], [1, 3, 3, 1, 3], [3, 3, 1, 1, 3]]","[2, 11, 8, 3, 6]",14,12,1,0.05,0.05,0,"[]",0,"extreme",5,5,1602,0,151,151,13917350054211868672,"attentional-mouselab",16,209886,4
"141","mouselab","False","[]","[[6, 5, 2, 4, 5], [2, 7, 6, 6, 3], [5, 4, 8, 3, 9], [4, 6, 5, 5, 3], [3, 3, 4, 6, 6]]","[[3, 3, 3, 3, 1], [3, 1, 3, 3, 3], [3, 3, 3, 1, 1], [3, 1, 3, 3, 3], [3, 3, 3, 3, 1]]","[11, 6, 6, 3, 4]",10,13,2,0.046,0.046,0,"[]",0,"greedy",5,5,1643,0,137,137,18266753468254887936,"attentional-mouselab",17,213156,4
"142","mouselab","False","[]","[[8, 4, 3, 4, 5], [6, 3, 6, 7, 5], [6, 4, 4, 4, 3], [3, 2, 3, 8, 3], [4, 10, 5, 6, 8]]","[[1, 3, 3, 3, 3], [3, 1, 3, 3, 1], [1, 3, 3, 3, 3], [1, 3, 3, 3, 3], [1, 3, 3, 3, 3]]","[1, 14, 2, 11, 2]",26,14,3,0.07,0.07,0,"[]",0,"random",5,5,7548,0,210,210,14370154337568069632,"attentional-mouselab",18,221982,4
"143","mouselab","False","[]","[[5, 6, 7, 4, 7], [5, 6, 8, 5, 7], [4, 3, 7, 3, 8], [5, 1, 9, 3, 4], [3, 3, 5, 4, 6]]","[[3, 3, 3, 3, 3], [3, 3, 1, 1, 3], [3, 3, 3, 3, 1], [3, 1, 1, 3, 3], [3, 3, 1, 3, 3]]","[5, 6, 2, 2, 15]",18,15,0,0.039,0.039,0,"[]",0,"extreme",5,5,1221,0,118,118,9455410224978106368,"attentional-mouselab",19,224387,4
"144","mouselab","False","[12, 22]","[[2, 6, 6, 4, 7], [6, 5, 7, 5, 6], [2, 4, 5, 6, 5], [7, 7, 5, 6, 7], [6, 4, 9, 8, 0]]","[[1, 3, 3, 3, 3], [3, 3, 3, 3, 3], [3, 1, 1, 3, 3], [3, 3, 3, 1, 3], [3, 3, 1, 3, 1]]","[4, 1, 9, 12, 4]",18,16,2,0.057,0.0563333333333333,0.000666666666666667,"[12, 22]",2,"extreme",5,5,3679,2,172,170,4440491872436955648,"attentional-mouselab",20,229309,4
"145","mouselab","False","[16, 14, 9, 6]","[[2, 4, 5, 7, 5], [0, 7, 6, 6, 6], [3, 7, 1, 4, 3], [8, 7, 4, 7, 6], [5, 7, 5, 5, 6]]","[[1, 3, 3, 3, 3], [3, 1, 3, 3, 1], [3, 3, 3, 3, 1], [3, 1, 3, 3, 3], [3, 1, 3, 3, 3]]","[3, 12, 2, 6, 7]",14,17,1,0.067,0.0656666666666667,0.00133333333333333,"[16, 14, 9, 6]",4,"greedy",5,5,4213,4,201,197,14451296704122728448,"attentional-mouselab",21,235555,4
"146","mouselab","False","[17, 23, 19]","[[3, 6, 5, 1, 3], [5, 8, 5, 5, 4], [6, 5, 6, 5, 7], [10, 3, 6, 3, 8], [7, 5, 6, 5, 4]]","[[3, 3, 3, 1, 3], [3, 3, 3, 3, 3], [3, 3, 3, 3, 3], [1, 3, 1, 3, 1], [3, 1, 3, 1, 3]]","[4, 8, 6, 2, 10]",12,18,4,0.047,0.046,0.001,"[17, 23, 19]",3,"extreme",5,5,4117,3,142,139,17267536881199783936,"attentional-mouselab",22,241924,4
"147","mouselab","False","[9, 8, 8, 8, 8, 12, 12, 12, 12, 11, 11, 11, 15, 15, 15, 5, 5]","[[7, 5, 4, 5, 6], [2, 8, 2, 4, 4], [2, 4, 3, 4, 5], [7, 6, 8, 5, 3], [4, 7, 5, 6, 8]]","[[3, 3, 3, 3, 3], [1, 1, 3, 3, 1], [1, 3, 3, 3, 3], [3, 1, 3, 3, 3], [3, 1, 3, 3, 3]]","[2, 13, 2, 8, 5]",18,19,0,0.04,0.0353333333333333,0.00466666666666667,"[9, 8, 12, 11, 15, 5]",6,"greedy",5,5,13456,14,120,106,1.5943934567639e+19,"attentional-mouselab",23,256259,4
"148","mouselab","False","[10, 10, 10, 8, 8, 9, 9, 19, 19]","[[4, 8, 3, 7, 5], [1, 6, 4, 4, 6], [5, 5, 4, 4, 4], [7, 5, 3, 8, 5], [3, 7, 4, 9, 2]]","[[3, 3, 3, 3, 3], [3, 3, 3, 1, 1], [3, 3, 3, 3, 3], [3, 1, 3, 3, 1], [3, 3, 1, 3, 1]]","[5, 5, 3, 11, 6]",10,20,4,0.045,0.043,0.002,"[10, 8, 9, 19]",4,"random",5,5,6377,6,134,128,3490318631844119040,"attentional-mouselab",24,264270,4
"149","mouselab","False","[6, 6, 6, 11, 11, 11]","[[5, 3, 4, 7, 4], [6, 3, 6, 4, 8], [4, 7, 4, 4, 7], [6, 3, 5, 3, 5], [6, 6, 7, 4, 7]]","[[3, 3, 3, 3, 3], [1, 3, 3, 3, 1], [3, 3, 3, 3, 1], [3, 3, 1, 3, 3], [3, 3, 1, 3, 1]]","[2, 13, 1, 10, 4]",22,21,1,0.035,0.033,0.002,"[6, 11]",2,"greedy",5,5,4871,6,106,100,4978975502146608128,"attentional-mouselab",25,270533,4
"150","mouselab","False","[16, 16, 16, 11, 11, 11]","[[8, 6, 3, 5, 5], [2, 1, 4, 5, 3], [4, 4, 7, 7, 4], [5, 4, 6, 7, 4], [2, 5, 6, 0, 5]]","[[1, 3, 3, 3, 1], [1, 3, 1, 3, 3], [3, 3, 3, 1, 3], [3, 3, 3, 3, 3], [3, 3, 3, 1, 3]]","[6, 6, 5, 5, 8]",4,22,1,0.041,0.039,0.002,"[16, 11]",2,"random",5,5,5758,6,122,116,11640710906919120896,"attentional-mouselab",26,277366,4
"151","mouselab","False","[14, 14, 14]","[[6, 4, 5, 3, 5], [4, 4, 5, 7, 3], [6, 3, 4, 7, 4], [5, 2, 5, 9, 3], [7, 7, 5, 4, 8]]","[[3, 3, 1, 3, 3], [3, 3, 3, 1, 3], [3, 3, 3, 1, 3], [3, 1, 3, 1, 3], [1, 3, 3, 3, 3]]","[3, 3, 1, 10, 13]",22,23,4,0.054,0.053,0.001,"[14]",1,"greedy",5,5,2692,3,162,159,2268388850303967744,"attentional-mouselab",27,281425,4
"152","mouselab","False","[]","[[7, 6, 5, 5, 7], [8, 5, 5, 5, 5], [5, 7, 10, 4, 6], [5, 8, 4, 0, 3], [3, 6, 4, 7, 5]]","[[3, 1, 3, 3, 3], [3, 1, 3, 3, 3], [3, 3, 1, 3, 3], [1, 1, 3, 3, 3], [3, 1, 3, 3, 3]]","[1, 7, 13, 5, 4]",16,24,4,0.052,0.052,0,"[]",0,"greedy",5,5,1520,0,155,155,14897088407450877952,"attentional-mouselab",28,284132,4
"153","mouselab","False","[]","[[3, 1, 3, 3, 5], [5, 3, 6, 9, 6], [8, 8, 5, 4, 6], [5, 4, 5, 3, 6], [4, 4, 6, 4, 6]]","[[3, 3, 3, 3, 1], [3, 1, 1, 3, 1], [1, 3, 3, 3, 3], [3, 3, 3, 3, 1], [3, 3, 3, 3, 3]]","[6, 16, 2, 2, 4]",20,25,3,0.064,0.064,0,"[]",0,"greedy",5,5,854,0,192,192,1119539916130844032,"attentional-mouselab",29,286897,4
"154","mouselab","False","[11, 11, 8, 18]","[[7, 5, 4, 6, 4], [2, 7, 7, 7, 5], [5, 4, 7, 3, 3], [5, 1, 4, 7, 8], [4, 4, 8, 7, 5]]","[[3, 3, 3, 3, 3], [1, 3, 3, 1, 3], [3, 1, 1, 3, 3], [3, 3, 3, 1, 3], [3, 3, 1, 3, 3]]","[4, 2, 7, 1, 16]",22,26,3,0.059,0.058,0.001,"[11, 8, 18]",3,"greedy",5,5,3221,3,178,175,1803864834104613120,"attentional-mouselab",30,292134,4
"155","mouselab","False","[11, 2, 3, 22, 13]","[[4, 5, 1, 4, 6], [4, 6, 2, 4, 5], [5, 1, 6, 10, 2], [7, 2, 4, 5, 4], [3, 4, 4, 6, 4]]","[[3, 3, 1, 1, 3], [3, 3, 3, 3, 3], [3, 1, 3, 1, 3], [3, 3, 3, 3, 3], [1, 3, 1, 3, 3]]","[14, 1, 4, 7, 4]",18,27,3,0.053,0.0513333333333333,0.00166666666666667,"[11, 2, 3, 22, 13]",5,"extreme",5,5,7321,5,159,154,8158765956003463168,"attentional-mouselab",31,304204,4
"156","mouselab","False","[17, 18, 7, 7, 7, 7]","[[5, 5, 5, 3, 7], [2, 5, 9, 8, 5], [6, 5, 4, 6, 5], [4, 5, 8, 1, 5], [5, 4, 4, 7, 8]]","[[3, 3, 3, 3, 3], [3, 3, 3, 3, 3], [1, 3, 3, 3, 3], [1, 3, 1, 1, 1], [1, 3, 3, 3, 3]]","[2, 1, 10, 16, 1]",28,28,2,0.064,0.0623333333333333,0.00166666666666667,"[17, 18, 7]",3,"random",5,5,5313,5,191,186,1.7661850008015e+19,"attentional-mouselab",32,310393,4
"157","mouselab","False","[24]","[[7, 6, 6, 5, 6], [7, 5, 5, 6, 5], [6, 6, 5, 4, 4], [4, 3, 6, 5, 5], [2, 5, 2, 6, 5]]","[[3, 3, 1, 3, 3], [1, 3, 3, 3, 3], [3, 1, 3, 3, 3], [3, 3, 3, 3, 3], [1, 3, 1, 3, 1]]","[3, 3, 8, 10, 6]",12,29,4,0.048,0.0476666666666667,0.000333333333333333,"[24]",1,"extreme",5,5,2507,1,145,144,2446345523251941376,"attentional-mouselab",33,314585,4
"158","mouselab","False","[8, 8, 8, 8]","[[5, 6, 3, 5, 4], [6, 5, 6, 6, 6], [6, 5, 6, 6, 6], [7, 5, 3, 6, 5], [4, 3, 6, 3, 5]]","[[3, 3, 1, 3, 3], [3, 3, 3, 3, 3], [3, 1, 1, 3, 3], [1, 3, 3, 3, 3], [1, 3, 3, 1, 3]]","[2, 2, 1, 23, 2]",34,30,3,0.057,0.056,0.001,"[8]",1,"extreme",5,5,3155,3,172,169,1.1976857462046e+19,"attentional-mouselab",34,318692,4
"159","mouselab","False","[12, 12, 12, 12]","[[6, 5, 2, 3, 4], [2, 2, 7, 5, 5], [3, 5, 3, 5, 1], [1, 9, 3, 6, 6], [8, 3, 3, 5, 5]]","[[3, 3, 3, 1, 3], [1, 3, 3, 3, 3], [3, 1, 3, 3, 1], [1, 1, 3, 3, 3], [3, 3, 3, 3, 3]]","[3, 5, 1, 20, 1]",28,31,2,0.036,0.035,0.001,"[12]",1,"extreme",5,5,2203,3,107,104,18289155612482465792,"attentional-mouselab",35,321807,4
"160","mouselab","False","[12, 12, 12]","[[4, 6, 5, 8, 10], [3, 4, 5, 3, 9], [4, 2, 4, 8, 6], [4, 9, 8, 6, 6], [3, 4, 5, 5, 5]]","[[3, 3, 3, 3, 1], [3, 1, 3, 1, 3], [1, 3, 3, 3, 3], [1, 3, 3, 1, 3], [3, 3, 3, 3, 3]]","[9, 5, 5, 9, 2]",12,32,2,0.057,0.056,0.001,"[12]",1,"random",5,5,2700,3,172,169,9082589867785505792,"attentional-mouselab",36,325557,4
"161","mouselab","True","[13, 10, 10, 10, 23, 18, 11, 11, 11, 14, 14, 14]","[[5, 2, 5, 7, 7], [5, 6, 4, 8, 4], [6, 4, 7, 6, 6], [6, 3, 5, 6, 10], [7, 4, 6, 2, 4]]","[[3, 3, 1, 3, 3], [3, 3, 3, 3, 3], [3, 3, 3, 1, 3], [3, 3, 1, 1, 3], [3, 1, 3, 1, 3]]","[4, 1, 16, 6, 3]",20,1,3,0.058,0.054,0.004,"[13, 10, 23, 18, 11, 14]",6,"random",5,5,34055,12,174,162,10817246692429400064,"attentional-mouselab",4,185940,5
"162","mouselab","True","[4, 1, 2, 22, 22, 22, 7, 7, 7]","[[5, 5, 7, 7, 6], [4, 3, 9, 4, 9], [4, 2, 8, 6, 5], [6, 3, 7, 3, 5], [8, 4, 2, 5, 6]]","[[3, 1, 1, 3, 1], [3, 3, 3, 3, 3], [3, 3, 3, 1, 3], [3, 3, 3, 3, 3], [3, 1, 3, 1, 3]]","[9, 7, 5, 2, 7]",10,2,2,0.065,0.062,0.003,"[4, 1, 2, 22, 7]",5,"random",5,5,16870,9,194,185,835543193021001216,"attentional-mouselab",5,206213,5
"163","mouselab","False","[17, 17, 7, 5, 1, 2]","[[7, 4, 8, 6, 7], [4, 7, 7, 7, 6], [5, 7, 5, 5, 6], [8, 7, 7, 3, 2], [2, 5, 6, 3, 7]]","[[3, 1, 1, 3, 3], [1, 3, 1, 3, 3], [3, 3, 3, 3, 3], [3, 3, 1, 1, 3], [3, 3, 3, 3, 3]]","[13, 11, 1, 2, 3]",24,3,2,0.073,0.0713333333333333,0.00166666666666667,"[17, 7, 5, 1, 2]",5,"greedy",5,5,8575,5,218,213,3228134042053132800,"attentional-mouselab",7,221266,5
"164","mouselab","False","[3, 4, 18, 1, 1, 1, 16, 16, 16]","[[5, 7, 4, 4, 2], [5, 7, 3, 4, 6], [6, 1, 5, 5, 5], [4, 6, 6, 2, 7], [3, 6, 4, 3, 7]]","[[3, 3, 3, 1, 1], [3, 1, 3, 3, 3], [1, 1, 3, 3, 3], [3, 3, 3, 1, 3], [3, 3, 3, 3, 3]]","[11, 3, 2, 9, 5]",16,4,1,0.061,0.058,0.003,"[3, 4, 18, 1, 16]",5,"extreme",5,5,17133,9,184,175,6565432419174811648,"attentional-mouselab",8,242354,5
"165","mouselab","False","[2, 12, 14, 4, 4, 4, 1, 1, 1, 10, 0, 0, 0]","[[4, 7, 9, 6, 7], [5, 2, 5, 5, 7], [8, 6, 2, 3, 3], [5, 3, 7, 4, 4], [6, 10, 5, 4, 2]]","[[3, 3, 1, 3, 3], [3, 1, 3, 3, 3], [1, 3, 1, 3, 1], [3, 3, 3, 3, 3], [3, 1, 3, 3, 3]]","[15, 3, 7, 3, 2]",20,5,2,0.065,0.0606666666666667,0.00433333333333333,"[2, 12, 14, 4, 1, 10, 0]",7,"extreme",5,5,20568,13,195,182,17424764187364503552,"attentional-mouselab",9,264889,5
"166","mouselab","False","[0, 6, 7, 8, 2, 2, 2, 5, 5, 5]","[[3, 4, 5, 6, 5], [6, 2, 8, 6, 6], [7, 6, 5, 5, 2], [4, 6, 6, 6, 5], [5, 4, 5, 5, 6]]","[[1, 3, 3, 3, 3], [3, 1, 1, 1, 3], [3, 3, 3, 3, 1], [3, 3, 3, 3, 1], [3, 3, 3, 3, 3]]","[10, 9, 1, 8, 2]",18,6,2,0.062,0.0586666666666667,0.00333333333333333,"[0, 6, 7, 8, 2, 5]",6,"extreme",5,5,13907,10,185,175,524811595339828096,"attentional-mouselab",10,282494,5
"167","mouselab","False","[11, 11, 11, 14, 14, 14, 10, 10, 10, 16, 15]","[[3, 4, 4, 8, 6], [7, 9, 6, 3, 5], [7, 4, 6, 7, 5], [9, 8, 6, 6, 5], [5, 6, 5, 5, 5]]","[[3, 3, 3, 3, 1], [1, 1, 3, 3, 3], [3, 3, 3, 3, 3], [1, 1, 1, 3, 3], [3, 3, 3, 3, 3]]","[5, 1, 21, 2, 1]",30,7,0,0.064,0.0603333333333333,0.00366666666666667,"[11, 14, 10, 16, 15]",5,"extreme",5,5,14936,11,192,181,13918504120606879744,"attentional-mouselab",11,299508,5
"168","mouselab","False","[17, 4, 2, 2, 2, 19, 19, 19, 16, 16, 16, 1, 1, 1]","[[8, 6, 5, 4, 5], [5, 6, 2, 4, 6], [8, 6, 5, 3, 5], [0, 4, 6, 5, 4], [6, 6, 4, 5, 5]]","[[3, 3, 3, 3, 1], [3, 1, 3, 3, 3], [1, 1, 3, 1, 3], [3, 3, 1, 3, 3], [3, 3, 3, 3, 3]]","[9, 2, 1, 14, 4]",22,8,2,0.051,0.0463333333333333,0.00466666666666667,"[17, 4, 2, 19, 16, 1]",6,"random",5,5,21512,14,154,140,15149515208993202176,"attentional-mouselab",12,322275,5
"169","mouselab","False","[21, 20, 6, 5, 5, 5]","[[6, 7, 5, 4, 7], [5, 3, 5, 7, 3], [2, 6, 7, 7, 3], [7, 5, 3, 3, 6], [8, 5, 4, 1, 5]]","[[3, 1, 3, 1, 3], [3, 1, 3, 3, 3], [3, 3, 3, 3, 3], [3, 1, 3, 3, 3], [1, 1, 3, 3, 3]]","[1, 8, 3, 3, 15]",22,9,0,0.064,0.062,0.002,"[21, 20, 6, 5]",4,"random",5,5,6722,6,193,187,5790454138643733504,"attentional-mouselab",13,330599,5
"170","mouselab","False","[19, 3, 2, 1, 18, 18, 18]","[[7, 4, 4, 6, 8], [7, 1, 8, 4, 6], [7, 6, 6, 4, 3], [6, 4, 7, 2, 7], [4, 6, 4, 8, 3]]","[[3, 1, 1, 1, 3], [3, 3, 3, 1, 3], [1, 3, 3, 3, 3], [3, 3, 3, 3, 1], [3, 3, 3, 3, 3]]","[8, 5, 3, 12, 2]",16,10,4,0.064,0.0616666666666667,0.00233333333333333,"[19, 3, 2, 1, 18]",5,"random",5,5,10689,7,193,186,9401549732085469184,"attentional-mouselab",14,342734,5
"171","mouselab","False","[17, 19, 21, 22, 22, 22, 24, 24, 24, 14]","[[5, 7, 6, 6, 4], [5, 7, 6, 6, 5], [3, 10, 5, 3, 5], [4, 5, 4, 7, 6], [6, 4, 3, 4, 7]]","[[3, 3, 3, 3, 3], [1, 1, 3, 3, 3], [3, 3, 3, 3, 1], [3, 3, 1, 3, 1], [3, 1, 3, 3, 3]]","[1, 8, 4, 9, 8]",14,11,4,0.058,0.0546666666666667,0.00333333333333333,"[17, 19, 21, 22, 24, 14]",6,"random",5,5,10993,10,174,164,10158661613714374656,"attentional-mouselab",15,355403,5
"172","mouselab","False","[23, 3, 1, 4, 24, 24, 24]","[[4, 4, 7, 6, 7], [6, 6, 7, 9, 4], [6, 1, 5, 6, 7], [4, 6, 4, 4, 8], [7, 4, 2, 8, 6]]","[[3, 1, 3, 1, 1], [3, 3, 3, 1, 3], [3, 3, 3, 3, 3], [3, 3, 1, 3, 3], [3, 3, 3, 1, 3]]","[8, 6, 4, 1, 11]",14,12,3,0.073,0.0706666666666667,0.00233333333333333,"[23, 3, 1, 4, 24]",5,"greedy",5,5,9687,7,218,211,10488374301423161344,"attentional-mouselab",16,367831,5
"173","mouselab","False","[20, 22, 5, 7, 7, 7]","[[6, 4, 4, 6, 5], [6, 7, 4, 2, 6], [6, 2, 5, 4, 3], [2, 5, 4, 0, 5], [7, 4, 5, 4, 5]]","[[3, 3, 1, 3, 3], [1, 3, 3, 3, 3], [3, 1, 3, 1, 3], [3, 3, 3, 3, 3], [1, 3, 1, 3, 3]]","[3, 6, 1, 4, 16]",20,13,0,0.06,0.058,0.002,"[20, 22, 5, 7]",4,"greedy",5,5,6998,6,180,174,4536221223743875072,"attentional-mouselab",17,376540,5
"174","mouselab","False","[22, 24, 12, 12, 12, 14, 14, 14, 9, 7]","[[5, 3, 5, 3, 3], [6, 3, 7, 4, 4], [4, 8, 4, 4, 7], [4, 4, 4, 5, 2], [7, 6, 6, 5, 4]]","[[3, 3, 3, 3, 3], [3, 1, 1, 3, 1], [3, 3, 3, 3, 3], [3, 1, 3, 3, 3], [3, 3, 1, 3, 1]]","[1, 6, 12, 1, 10]",20,14,4,0.051,0.0476666666666667,0.00333333333333333,"[22, 24, 12, 14, 9, 7]",6,"random",5,5,27694,10,153,143,698277850366527488,"attentional-mouselab",18,405725,5
"175","mouselab","False","[15, 5, 1, 4, 9, 9, 9, 16, 16, 16, 19, 19, 19, 6, 6, 6]","[[5, 3, 6, 4, 7], [8, 4, 3, 6, 6], [3, 1, 5, 3, 5], [7, 5, 7, 6, 5], [4, 7, 4, 6, 5]]","[[3, 1, 3, 3, 1], [1, 3, 3, 3, 3], [3, 1, 3, 3, 3], [1, 3, 3, 3, 3], [3, 3, 3, 1, 3]]","[7, 7, 2, 12, 2]",16,15,0,0.063,0.0576666666666667,0.00533333333333333,"[15, 5, 1, 4, 9, 16, 19, 6]",8,"greedy",5,5,25384,16,189,173,4625169416512939008,"attentional-mouselab",19,432575,5
"176","mouselab","False","[4, 9, 20, 6, 0, 0, 0]","[[4, 5, 3, 2, 5], [7, 2, 2, 6, 5], [4, 4, 4, 7, 6], [7, 7, 7, 2, 6], [9, 5, 6, 7, 5]]","[[3, 3, 3, 3, 1], [3, 1, 3, 3, 1], [3, 3, 3, 3, 1], [3, 3, 3, 1, 3], [1, 3, 3, 3, 3]]","[11, 6, 5, 2, 6]",10,16,4,0.052,0.0496666666666667,0.00233333333333333,"[4, 9, 20, 6, 0]",5,"extreme",5,5,15074,7,157,150,4131135709023192576,"attentional-mouselab",20,449182,5
"177","mouselab","False","[0, 10, 23, 20, 3, 3, 3, 13, 13, 13]","[[3, 5, 4, 6, 7], [6, 4, 6, 4, 2], [5, 3, 5, 7, 3], [0, 5, 8, 4, 5], [4, 4, 7, 1, 3]]","[[1, 3, 3, 3, 3], [3, 3, 3, 3, 1], [1, 3, 3, 3, 3], [1, 3, 3, 3, 3], [1, 3, 3, 1, 3]]","[10, 2, 8, 2, 8]",16,17,3,0.047,0.0436666666666667,0.00333333333333333,"[0, 10, 23, 20, 3, 13]",6,"extreme",5,5,19417,10,140,130,9934107181755748352,"attentional-mouselab",21,469717,5
"178","mouselab","False","[1, 2, 2, 2, 0, 0, 0, 4, 4, 4, 3, 3, 3, 6]","[[2, 4, 4, 4, 4], [5, 3, 6, 5, 5], [5, 7, 6, 3, 5], [7, 8, 5, 4, 1], [5, 6, 7, 7, 7]]","[[3, 1, 3, 3, 3], [3, 1, 3, 3, 3], [3, 1, 3, 3, 1], [3, 1, 3, 3, 3], [3, 3, 1, 3, 3]]","[18, 4, 1, 4, 3]",24,18,1,0.047,0.0423333333333333,0.00466666666666667,"[1, 2, 0, 4, 3, 6]",6,"greedy",5,5,13689,14,141,127,16451022408697884672,"attentional-mouselab",22,484663,5
"179","mouselab","False","[10, 6, 5, 5, 5, 11, 11, 11]","[[6, 6, 3, 4, 7], [6, 2, 6, 5, 2], [5, 7, 5, 4, 7], [6, 2, 5, 7, 9], [7, 2, 3, 5, 3]]","[[3, 1, 1, 3, 1], [3, 1, 3, 3, 3], [1, 3, 3, 3, 3], [3, 3, 3, 3, 1], [3, 3, 3, 3, 3]]","[1, 9, 10, 2, 8]",18,19,0,0.059,0.0563333333333333,0.00266666666666667,"[10, 6, 5, 11]",4,"random",5,5,16020,8,178,170,12846762042217832448,"attentional-mouselab",23,502076,5
"180","mouselab","False","[5, 20, 20, 20]","[[5, 2, 8, 3, 3], [9, 6, 5, 6, 3], [5, 5, 8, 6, 4], [8, 5, 5, 4, 3], [6, 6, 5, 6, 8]]","[[3, 3, 1, 1, 3], [1, 3, 3, 3, 3], [3, 3, 1, 1, 3], [1, 3, 3, 3, 3], [3, 3, 3, 3, 3]]","[3, 8, 4, 4, 11]",14,20,0,0.068,0.0666666666666667,0.00133333333333333,"[5, 20]",2,"extreme",5,5,5860,4,205,201,10236133257037568000,"attentional-mouselab",24,509347,5
"181","mouselab","False","[6, 5, 1, 0, 0, 0]","[[6, 7, 5, 7, 5], [8, 3, 6, 5, 7], [4, 3, 6, 3, 1], [4, 2, 4, 7, 4], [2, 6, 6, 5, 9]]","[[3, 1, 3, 3, 3], [1, 1, 3, 3, 3], [1, 3, 3, 3, 3], [3, 1, 3, 3, 3], [3, 3, 3, 3, 1]]","[9, 13, 3, 3, 2]",20,21,0,0.062,0.06,0.002,"[6, 5, 1, 0]",4,"random",5,5,6961,6,186,180,5938478265524406272,"attentional-mouselab",25,517690,5
"182","mouselab","False","[6, 9, 14, 11, 11, 11]","[[2, 4, 5, 7, 5], [0, 7, 6, 6, 6], [3, 7, 1, 4, 3], [8, 7, 4, 7, 6], [5, 7, 5, 5, 6]]","[[1, 3, 3, 3, 3], [3, 1, 3, 3, 1], [3, 3, 3, 3, 1], [3, 1, 3, 3, 3], [3, 1, 3, 3, 3]]","[2, 17, 7, 2, 2]",24,22,1,0.068,0.066,0.002,"[6, 9, 14, 11]",4,"greedy",5,5,7992,6,204,198,14451296704122728448,"attentional-mouselab",26,526951,5
"183","mouselab","False","[6, 8, 24, 21, 21, 21, 23, 23, 23]","[[7, 4, 5, 7, 3], [6, 6, 6, 4, 6], [5, 7, 2, 5, 5], [6, 5, 7, 4, 5], [3, 5, 4, 6, 7]]","[[3, 3, 3, 1, 3], [3, 1, 3, 1, 3], [1, 3, 3, 3, 3], [3, 3, 3, 1, 3], [3, 3, 3, 3, 1]]","[4, 12, 6, 1, 7]",14,23,1,0.057,0.054,0.003,"[6, 8, 24, 21, 23]",5,"random",5,5,11382,9,170,161,5277253179100978176,"attentional-mouselab",27,539475,5
"184","mouselab","False","[7, 2, 8, 4, 3, 3, 3]","[[7, 2, 8, 6, 2], [5, 2, 6, 6, 6], [7, 5, 6, 4, 3], [5, 5, 5, 6, 6], [5, 3, 6, 6, 5]]","[[3, 3, 1, 3, 1], [3, 3, 1, 1, 3], [3, 3, 1, 3, 3], [3, 3, 3, 3, 3], [3, 3, 1, 3, 3]]","[11, 10, 5, 3, 1]",18,24,2,0.066,0.0636666666666667,0.00233333333333333,"[7, 2, 8, 4, 3]",5,"greedy",5,5,6991,7,199,192,16530559453271742464,"attentional-mouselab",28,547546,5
"185","mouselab","False","[14, 6, 5, 11, 11, 11, 10, 10, 10, 9]","[[7, 6, 6, 8, 4], [8, 9, 4, 3, 1], [5, 7, 2, 6, 5], [9, 5, 5, 7, 1], [8, 2, 5, 3, 5]]","[[3, 3, 3, 3, 3], [1, 1, 3, 3, 1], [3, 3, 3, 3, 1], [1, 3, 3, 3, 1], [3, 3, 3, 3, 3]]","[1, 4, 16, 2, 7]",22,25,4,0.042,0.0386666666666667,0.00333333333333333,"[14, 6, 5, 11, 10, 9]",6,"extreme",5,5,16821,10,125,115,10531175009633925120,"attentional-mouselab",29,565441,5
"186","mouselab","False","[5, 9, 15, 15, 15, 19, 19, 19]","[[6, 7, 6, 4, 7], [8, 5, 5, 6, 5], [4, 1, 6, 4, 5], [5, 7, 2, 6, 4], [3, 7, 3, 3, 5]]","[[3, 1, 3, 3, 3], [1, 3, 3, 3, 1], [3, 1, 3, 3, 3], [3, 1, 1, 3, 3], [3, 3, 3, 3, 3]]","[3, 13, 5, 5, 4]",14,26,0,0.06,0.0573333333333333,0.00266666666666667,"[5, 9, 15, 19]",4,"extreme",5,5,9551,8,179,171,2399388488744530432,"attentional-mouselab",30,575872,5
"187","mouselab","False","[22, 23, 2, 2, 2]","[[5, 5, 5, 4, 6], [3, 4, 6, 5, 6], [6, 6, 5, 5, 8], [8, 5, 6, 7, 4], [5, 4, 7, 6, 3]]","[[1, 3, 3, 3, 3], [3, 3, 1, 3, 3], [3, 3, 3, 3, 1], [1, 3, 3, 3, 3], [3, 3, 1, 1, 3]]","[7, 3, 1, 8, 11]",16,27,2,0.061,0.0593333333333333,0.00166666666666667,"[22, 23, 2]",3,"greedy",5,5,6781,5,183,178,14049493529045659648,"attentional-mouselab",31,584700,5
"188","mouselab","False","[7, 9, 12, 14, 14, 14]","[[5, 4, 6, 6, 5], [4, 4, 7, 4, 6], [3, 3, 5, 3, 5], [5, 5, 5, 3, 6], [8, 5, 6, 5, 3]]","[[3, 1, 3, 3, 3], [3, 3, 1, 3, 1], [3, 3, 1, 3, 3], [3, 3, 3, 1, 3], [1, 3, 3, 3, 3]]","[2, 12, 8, 5, 3]",16,28,2,0.06,0.058,0.002,"[7, 9, 12, 14]",4,"extreme",5,5,8470,6,179,173,3068042706314721280,"attentional-mouselab",32,595012,5
"189","mouselab","False","[20, 14, 24, 24, 24, 10, 10, 10]","[[6, 8, 3, 6, 6], [4, 7, 6, 6, 6], [5, 7, 4, 5, 6], [5, 5, 6, 10, 5], [4, 8, 4, 3, 8]]","[[3, 1, 3, 1, 3], [3, 3, 1, 3, 3], [3, 3, 3, 3, 1], [3, 1, 3, 3, 3], [1, 3, 3, 3, 3]]","[2, 8, 9, 2, 9]",16,29,4,0.065,0.0623333333333333,0.00266666666666667,"[20, 14, 24, 10]",4,"random",5,5,8000,8,196,188,9300619125008535552,"attentional-mouselab",33,604626,5
"190","mouselab","False","[6, 9, 14]","[[5, 2, 2, 9, 3], [3, 5, 4, 5, 7], [5, 4, 4, 1, 7], [3, 8, 6, 6, 7], [3, 6, 5, 2, 2]]","[[3, 1, 3, 1, 1], [3, 1, 3, 3, 1], [3, 3, 3, 3, 1], [3, 3, 3, 3, 3], [3, 3, 3, 3, 3]]","[3, 10, 13, 1, 3]",22,30,4,0.061,0.06,0.001,"[6, 9, 14]",3,"greedy",5,5,5047,3,183,180,13926450257687615488,"attentional-mouselab",34,611214,5
"191","mouselab","False","[5, 8, 10, 13, 13, 13]","[[4, 4, 5, 7, 4], [8, 5, 6, 8, 6], [9, 2, 3, 6, 5], [6, 7, 6, 6, 5], [7, 7, 0, 2, 6]]","[[3, 3, 3, 3, 3], [1, 3, 3, 1, 3], [1, 3, 3, 3, 3], [1, 3, 3, 3, 3], [1, 3, 3, 3, 1]]","[4, 16, 7, 2, 1]",22,31,0,0.075,0.073,0.002,"[5, 8, 10, 13]",4,"greedy",5,5,6704,6,226,220,13186851384954365952,"attentional-mouselab",35,620270,5
"192","mouselab","False","[17, 11, 11, 11, 12, 12, 12]","[[5, 6, 6, 4, 7], [6, 6, 4, 8, 4], [5, 4, 6, 5, 5], [4, 7, 5, 2, 7], [8, 6, 6, 4, 8]]","[[3, 1, 3, 3, 3], [1, 1, 1, 3, 3], [3, 3, 3, 3, 3], [3, 3, 1, 3, 3], [3, 3, 3, 1, 3]]","[5, 3, 11, 7, 4]",12,32,2,0.056,0.0536666666666667,0.00233333333333333,"[17, 11, 12]",3,"random",5,5,10368,7,167,160,6659352403456837632,"attentional-mouselab",36,631819,5
"193","mouselab","True","[2, 6, 7, 5]","[[7, 3, 3, 5, 7], [5, 4, 8, 6, 5], [3, 4, 8, 7, 4], [7, 5, 5, 6, 6], [7, 8, 4, 5, 5]]","[[3, 3, 1, 1, 3], [1, 3, 3, 1, 3], [3, 3, 3, 3, 3], [3, 3, 3, 3, 1], [3, 1, 3, 3, 3]]","[12, 7, 3, 2, 6]",14,1,0,0.061,0.0596666666666667,0.00133333333333333,"[2, 5]",2,"random",5,5,18698,4,184,180,2249003997686058752,"attentional-mouselab",4,385907,6
"194","mouselab","True","[]","[[4, 5, 7, 8, 5], [6, 3, 5, 8, 4], [5, 7, 7, 5, 6], [4, 3, 4, 7, 4], [5, 8, 8, 6, 3]]","[[3, 3, 1, 3, 1], [1, 3, 3, 3, 3], [3, 3, 3, 3, 3], [1, 3, 1, 3, 3], [3, 3, 1, 3, 3]]","[3, 16, 4, 2, 5]",20,2,3,0.072,0.072,0,"[]",0,"random",5,5,1907,0,216,216,36399591250330176,"attentional-mouselab",5,393437,6
"195","mouselab","False","[]","[[4, 7, 5, 7, 3], [5, 4, 6, 5, 5], [5, 4, 2, 5, 1], [7, 8, 6, 5, 4], [3, 5, 6, 6, 8]]","[[3, 3, 3, 3, 3], [3, 3, 3, 3, 3], [3, 3, 1, 3, 1], [1, 1, 3, 3, 3], [1, 3, 3, 3, 1]]","[1, 6, 12, 3, 8]",16,3,1,0.048,0.048,0,"[]",0,"extreme",5,5,2831,0,143,143,13001480368595290112,"attentional-mouselab",7,402094,6
"196","mouselab","False","[]","[[6, 5, 2, 6, 2], [2, 5, 3, 6, 8], [7, 6, 6, 8, 4], [7, 7, 4, 5, 3], [5, 3, 7, 5, 4]]","[[3, 1, 3, 3, 3], [3, 1, 3, 3, 3], [3, 3, 1, 3, 1], [3, 3, 3, 3, 3], [3, 1, 1, 3, 3]]","[4, 6, 15, 1, 4]",18,4,3,0.068,0.068,0,"[]",0,"random",5,5,2028,0,205,205,8550636600569845760,"attentional-mouselab",8,407954,6
"197","mouselab","False","[]","[[5, 1, 4, 4, 5], [5, 1, 6, 1, 5], [5, 6, 2, 4, 5], [5, 8, 7, 5, 3], [7, 6, 1, 5, 2]]","[[3, 3, 3, 3, 1], [1, 1, 3, 1, 3], [1, 3, 3, 3, 3], [3, 3, 3, 3, 3], [3, 3, 3, 1, 3]]","[6, 4, 3, 1, 16]",20,5,0,0.061,0.061,0,"[]",0,"random",5,5,1708,0,182,182,12141938702197121024,"attentional-mouselab",9,414996,6
"198","mouselab","False","[]","[[1, 5, 2, 7, 8], [8, 5, 5, 8, 3], [3, 6, 2, 6, 1], [8, 4, 7, 5, 6], [3, 6, 8, 2, 5]]","[[3, 3, 3, 1, 3], [3, 3, 3, 1, 3], [3, 1, 3, 1, 3], [3, 3, 3, 3, 1], [3, 3, 1, 3, 3]]","[12, 3, 2, 10, 3]",20,6,1,0.048,0.048,0,"[]",0,"greedy",5,5,1590,0,145,145,10532060995726827520,"attentional-mouselab",10,419681,6
"199","mouselab","False","[]","[[3, 5, 3, 4, 4], [6, 4, 4, 5, 4], [1, 7, 6, 4, 8], [7, 2, 5, 5, 5], [4, 8, 3, 6, 3]]","[[3, 1, 3, 3, 3], [3, 3, 3, 1, 3], [1, 3, 3, 3, 1], [3, 1, 3, 3, 3], [3, 1, 3, 3, 3]]","[4, 11, 3, 8, 4]",14,7,2,0.042,0.042,0,"[]",0,"extreme",5,5,1672,0,126,126,14315833295799099392,"attentional-mouselab",11,424914,6
"200","mouselab","False","[]","[[7, 7, 4, 2, 7], [9, 2, 3, 2, 5], [5, 5, 5, 4, 5], [5, 5, 6, 4, 4], [7, 6, 5, 5, 9]]","[[3, 3, 3, 3, 3], [1, 3, 3, 3, 3], [3, 3, 1, 1, 1], [3, 3, 3, 3, 1], [3, 1, 3, 3, 3]]","[2, 1, 15, 2, 10]",26,8,4,0.064,0.064,0,"[]",0,"random",5,5,1342,0,192,192,17086180172175767552,"attentional-mouselab",12,428637,6
"201","mouselab","False","[]","[[7, 4, 5, 7, 3], [6, 6, 6, 4, 6], [5, 7, 2, 5, 5], [6, 5, 7, 4, 5], [3, 5, 4, 6, 7]]","[[3, 3, 3, 1, 1], [3, 3, 3, 1, 3], [1, 3, 1, 3, 3], [3, 3, 1, 3, 3], [3, 3, 3, 3, 3]]","[5, 4, 11, 1, 9]",16,9,1,0.057,0.057,0,"[]",0,"extreme",5,5,1363,0,171,171,5277253179100978176,"attentional-mouselab",13,432200,6
"202","mouselab","False","[]","[[6, 6, 4, 7, 6], [6, 8, 4, 9, 6], [4, 3, 4, 3, 5], [7, 1, 2, 7, 6], [4, 6, 6, 5, 7]]","[[3, 3, 1, 1, 3], [3, 3, 1, 3, 1], [3, 3, 3, 3, 3], [3, 3, 3, 3, 3], [3, 3, 3, 1, 1]]","[7, 6, 4, 11, 2]",12,10,1,0.042,0.042,0,"[]",0,"random",5,5,1380,0,125,125,7535496658907553792,"attentional-mouselab",14,435287,6
"203","mouselab","False","[]","[[5, 5, 6, 8, 6], [5, 5, 4, 4, 4], [5, 6, 8, 5, 5], [4, 8, 5, 4, 4], [6, 4, 3, 5, 5]]","[[1, 3, 3, 1, 3], [1, 3, 3, 3, 3], [3, 3, 1, 3, 3], [3, 1, 3, 3, 3], [3, 3, 1, 3, 3]]","[7, 2, 5, 5, 11]",12,11,0,0.052,0.052,0,"[]",0,"greedy",5,5,1150,0,156,156,12866535566946719744,"attentional-mouselab",15,438623,6
"204","mouselab","False","[]","[[3, 6, 6, 3, 6], [3, 6, 8, 7, 5], [5, 5, 2, 2, 2], [5, 6, 5, 6, 5], [3, 4, 5, 5, 7]]","[[3, 1, 3, 3, 3], [1, 3, 1, 3, 3], [3, 3, 3, 3, 3], [3, 1, 1, 3, 3], [3, 3, 3, 3, 1]]","[4, 9, 3, 11, 3]",16,12,3,0.054,0.054,0,"[]",0,"greedy",5,5,1239,0,162,162,931302568228983680,"attentional-mouselab",16,443073,6
"205","mouselab","False","[]","[[4, 4, 6, 5, 3], [4, 6, 5, 5, 6], [7, 6, 6, 8, 3], [5, 3, 5, 2, 8], [4, 8, 6, 3, 5]]","[[3, 3, 3, 1, 3], [3, 1, 3, 3, 1], [3, 3, 3, 3, 3], [3, 1, 3, 3, 1], [3, 3, 3, 3, 1]]","[1, 4, 7, 8, 10]",14,13,2,0.056,0.056,0,"[]",0,"random",5,5,1258,0,168,168,14978217556395628544,"attentional-mouselab",17,447045,6
"206","mouselab","False","[]","[[4, 4, 4, 5, 5], [9, 5, 8, 6, 3], [5, 6, 3, 5, 5], [4, 3, 2, 4, 4], [4, 5, 8, 5, 4]]","[[3, 3, 3, 1, 3], [1, 3, 1, 3, 3], [3, 3, 3, 3, 3], [1, 3, 3, 3, 3], [3, 3, 1, 3, 1]]","[11, 7, 5, 2, 5]",12,14,1,0.047,0.047,0,"[]",0,"extreme",5,5,1224,0,140,140,5217342859475200000,"attentional-mouselab",18,450236,6
"207","mouselab","False","[]","[[4, 4, 5, 3, 8], [2, 1, 5, 5, 6], [4, 7, 6, 9, 4], [6, 5, 7, 7, 4], [4, 4, 5, 7, 2]]","[[3, 1, 3, 3, 1], [1, 1, 3, 3, 3], [3, 3, 3, 1, 3], [3, 3, 3, 3, 3], [3, 3, 3, 3, 1]]","[3, 13, 10, 1, 3]",22,15,2,0.054,0.054,0,"[]",0,"extreme",5,5,1623,0,162,162,7076351468939137024,"attentional-mouselab",19,453605,6
"208","mouselab","False","[]","[[2, 7, 7, 4, 2], [6, 4, 3, 6, 3], [5, 6, 3, 3, 4], [4, 5, 6, 5, 3], [6, 6, 6, 5, 3]]","[[1, 3, 3, 3, 1], [3, 3, 3, 3, 3], [3, 3, 3, 3, 3], [3, 3, 1, 3, 3], [3, 1, 3, 1, 1]]","[20, 2, 2, 1, 5]",28,16,4,0.024,0.024,0,"[]",0,"extreme",5,5,1208,0,72,72,16504630946259800064,"attentional-mouselab",20,457015,6
"209","mouselab","False","[]","[[2, 5, 6, 5, 7], [7, 9, 7, 4, 5], [5, 4, 5, 3, 4], [6, 7, 4, 7, 7], [5, 5, 6, 4, 5]]","[[3, 3, 3, 3, 1], [3, 1, 1, 3, 3], [3, 3, 3, 1, 3], [3, 1, 3, 3, 3], [3, 3, 3, 1, 3]]","[6, 7, 4, 12, 1]",14,17,0,0.053,0.053,0,"[]",0,"greedy",5,5,1066,0,158,158,7108802734760315904,"attentional-mouselab",21,461275,6
"210","mouselab","False","[]","[[4, 5, 3, 6, 7], [4, 4, 6, 4, 7], [6, 6, 6, 4, 6], [6, 2, 5, 6, 3], [6, 4, 3, 8, 6]]","[[3, 3, 3, 1, 1], [3, 3, 3, 3, 3], [3, 1, 3, 3, 3], [3, 1, 3, 3, 3], [3, 3, 3, 1, 1]]","[4, 11, 10, 4, 1]",18,18,1,0.045,0.045,0,"[]",0,"extreme",5,5,1496,0,136,136,4144734896444137984,"attentional-mouselab",22,464802,6
"211","mouselab","False","[]","[[4, 8, 3, 6, 3], [4, 3, 5, 6, 7], [5, 4, 5, 9, 5], [7, 6, 3, 4, 4], [6, 6, 3, 5, 4]]","[[3, 3, 1, 3, 3], [3, 3, 1, 3, 1], [3, 3, 3, 3, 3], [3, 3, 3, 1, 3], [1, 1, 3, 3, 3]]","[4, 6, 7, 6, 7]",4,19,0,0.053,0.053,0,"[]",0,"random",5,5,1241,0,159,159,15569567674519328768,"attentional-mouselab",23,467750,6
"212","mouselab","False","[]","[[9, 5, 4, 6, 6], [3, 3, 5, 6, 2], [2, 5, 5, 5, 5], [4, 5, 5, 7, 5], [5, 6, 5, 4, 6]]","[[1, 3, 3, 3, 3], [1, 3, 3, 1, 3], [3, 3, 3, 3, 3], [3, 3, 3, 1, 1], [1, 3, 3, 3, 3]]","[1, 5, 2, 16, 6]",20,20,2,0.05,0.05,0,"[]",0,"greedy",5,5,1031,0,149,149,2747322062679106560,"attentional-mouselab",24,470478,6
"213","mouselab","False","[]","[[4, 8, 8, 5, 3], [6, 7, 5, 7, 5], [3, 4, 5, 6, 3], [4, 7, 4, 5, 4], [3, 5, 5, 5, 6]]","[[3, 1, 3, 3, 1], [3, 1, 1, 3, 3], [3, 3, 3, 3, 3], [3, 1, 3, 3, 3], [3, 3, 3, 1, 3]]","[14, 7, 1, 4, 4]",18,21,3,0.055,0.055,0,"[]",0,"greedy",5,5,1201,0,165,165,1871432663312556544,"attentional-mouselab",25,473507,6
"214","mouselab","False","[]","[[7, 5, 4, 5, 6], [6, 8, 4, 4, 2], [5, 6, 6, 6, 5], [5, 5, 9, 6, 7], [4, 5, 6, 4, 9]]","[[3, 1, 3, 3, 3], [3, 3, 3, 3, 1], [1, 3, 3, 3, 1], [3, 1, 3, 3, 3], [3, 3, 3, 1, 3]]","[2, 10, 4, 1, 13]",22,22,0,0.05,0.05,0,"[]",0,"random",5,5,1273,0,151,151,4366425798198434304,"attentional-mouselab",26,476877,6
"215","mouselab","False","[]","[[5, 7, 7, 4, 8], [8, 4, 8, 7, 8], [4, 2, 6, 8, 2], [4, 6, 9, 7, 5], [5, 3, 4, 4, 7]]","[[3, 3, 3, 3, 1], [3, 1, 3, 3, 3], [1, 1, 3, 3, 3], [3, 3, 3, 3, 3], [3, 1, 3, 3, 1]]","[5, 2, 12, 2, 9]",18,23,2,0.059,0.059,0,"[]",0,"random",5,5,2142,0,177,177,1999176083126550016,"attentional-mouselab",27,480749,6
"216","mouselab","False","[]","[[4, 8, 4, 4, 3], [5, 5, 8, 1, 8], [5, 5, 7, 6, 5], [1, 5, 4, 3, 7], [5, 7, 4, 4, 2]]","[[3, 3, 3, 1, 3], [1, 3, 3, 1, 3], [3, 3, 1, 3, 3], [1, 3, 3, 3, 3], [3, 3, 3, 3, 1]]","[5, 6, 2, 14, 3]",16,24,1,0.057,0.057,0,"[]",0,"extreme",5,5,1078,0,171,171,8083467036448632832,"attentional-mouselab",28,484079,6
"217","mouselab","False","[]","[[4, 4, 3, 5, 6], [6, 4, 2, 6, 4], [7, 4, 3, 6, 7], [2, 4, 7, 4, 1], [8, 6, 3, 7, 5]]","[[3, 3, 3, 1, 1], [3, 3, 1, 1, 3], [1, 3, 3, 3, 3], [3, 3, 3, 3, 3], [1, 3, 3, 3, 3]]","[3, 6, 8, 2, 11]",14,25,1,0.047,0.047,0,"[]",0,"greedy",5,5,1436,0,142,142,6919505098836646912,"attentional-mouselab",29,487157,6
"218","mouselab","False","[]","[[5, 7, 5, 6, 4], [3, 3, 5, 5, 2], [5, 8, 7, 4, 4], [4, 3, 4, 3, 5], [5, 2, 7, 4, 3]]","[[3, 3, 3, 3, 3], [3, 1, 1, 3, 1], [3, 1, 3, 3, 3], [3, 3, 3, 3, 3], [3, 1, 3, 3, 1]]","[4, 2, 9, 10, 5]",14,26,3,0.04,0.04,0,"[]",0,"extreme",5,5,1582,0,120,120,257949102427320992,"attentional-mouselab",30,490469,6
"219","mouselab","False","[]","[[7, 3, 4, 4, 4], [4, 4, 6, 7, 6], [6, 7, 4, 6, 2], [6, 7, 5, 4, 2], [4, 7, 4, 6, 7]]","[[3, 1, 3, 1, 3], [3, 3, 3, 3, 3], [3, 3, 3, 1, 3], [3, 3, 1, 1, 3], [1, 3, 3, 3, 3]]","[5, 11, 4, 9, 1]",16,27,0,0.054,0.054,0,"[]",0,"random",5,5,1663,0,161,161,962180557889334272,"attentional-mouselab",31,493986,6
"220","mouselab","False","[]","[[6, 4, 3, 6, 6], [6, 4, 5, 5, 4], [6, 1, 5, 3, 6], [3, 6, 8, 6, 5], [4, 5, 6, 5, 3]]","[[3, 3, 3, 3, 3], [3, 1, 3, 3, 3], [3, 3, 3, 3, 3], [1, 3, 1, 3, 1], [3, 1, 1, 3, 3]]","[10, 2, 12, 5, 1]",20,28,2,0.049,0.049,0,"[]",0,"random",5,5,1233,0,146,146,13404757924130588672,"attentional-mouselab",32,497567,6
"221","mouselab","False","[]","[[3, 4, 4, 4, 4], [5, 3, 3, 7, 5], [5, 4, 6, 3, 4], [4, 4, 7, 6, 9], [8, 2, 3, 4, 6]]","[[3, 3, 1, 3, 3], [1, 3, 3, 1, 3], [3, 3, 1, 3, 3], [3, 3, 3, 3, 1], [1, 3, 3, 3, 3]]","[10, 7, 1, 2, 10]",18,29,4,0.052,0.052,0,"[]",0,"greedy",5,5,1364,0,157,157,18043573482929799168,"attentional-mouselab",33,501132,6
"222","mouselab","False","[]","[[6, 4, 5, 7, 4], [4, 6, 6, 7, 5], [5, 4, 4, 3, 0], [2, 3, 9, 4, 3], [5, 2, 6, 2, 2]]","[[3, 3, 3, 3, 3], [3, 3, 1, 3, 3], [3, 1, 3, 1, 3], [3, 3, 1, 3, 3], [3, 3, 1, 1, 3]]","[3, 13, 7, 2, 5]",16,30,0,0.045,0.045,0,"[]",0,"greedy",5,5,1485,0,134,134,16459655342157780992,"attentional-mouselab",34,504404,6
"223","mouselab","False","[]","[[4, 6, 6, 5, 6], [5, 4, 5, 6, 5], [4, 6, 3, 6, 3], [0, 4, 6, 5, 2], [2, 3, 5, 4, 2]]","[[3, 3, 3, 3, 3], [3, 3, 3, 1, 3], [3, 1, 1, 1, 1], [3, 3, 3, 3, 3], [3, 1, 3, 3, 3]]","[2, 11, 2, 3, 12]",22,31,2,0.05,0.05,0,"[]",0,"greedy",5,5,1046,0,151,151,8281163398154921984,"attentional-mouselab",35,506848,6
"224","mouselab","False","[]","[[6, 6, 7, 9, 3], [5, 5, 5, 6, 4], [4, 5, 7, 8, 4], [5, 6, 5, 4, 7], [5, 7, 4, 3, 2]]","[[3, 3, 3, 1, 3], [3, 3, 3, 3, 3], [3, 3, 3, 1, 3], [3, 3, 3, 1, 3], [3, 1, 3, 1, 1]]","[1, 10, 8, 5, 6]",12,32,1,0.056,0.056,0,"[]",0,"extreme",5,5,11132,0,168,168,1952810914524207616,"attentional-mouselab",36,522895,6
"225","mouselab","True","[7, 14, 11, 20, 0, 14, 2, 18, 18, 17, 17, 17, 21, 21, 21, 2, 7, 7, 7, 16, 16, 16, 16, 16, 15, 15, 15, 15, 10, 10, 10, 5, 5, 5, 6, 6, 6, 6, 1, 1, 1, 1, 3, 3, 3, 3, 8, 8, 8, 8, 4, 4, 4, 4, 9, 9, 9, 9, 13, 13, 13, 13, 12, 12, 12, 22, 22, 22, 22, 23, 23, 23, 23, 23, 24, 24, 24, 24, 19, 19, 19, 19]","[[4, 3, 4, 3, 7], [2, 6, 8, 8, 6], [7, 4, 6, 5, 6], [7, 4, 3, 7, 4], [6, 4, 8, 8, 5]]","[[1, 3, 1, 3, 3], [3, 3, 3, 3, 3], [3, 1, 3, 3, 1], [3, 3, 3, 1, 3], [1, 3, 3, 3, 3]]","[5, 15, 5, 3, 2]",18,1,4,0.059,0.038,0.021,"[14, 11, 20, 0, 2, 18, 17, 21, 7, 16, 15, 10, 5, 6, 1, 3, 8, 4, 9, 13, 12, 22, 23, 24, 19]",25,"random",5,5,82726,63,177,114,6984855784574667776,"attentional-mouselab",4,139277,7
"226","mouselab","True","[]","[[4, 1, 6, 5, 7], [5, 3, 3, 4, 3], [7, 1, 4, 3, 4], [4, 6, 9, 8, 3], [3, 6, 3, 9, 4]]","[[3, 3, 3, 3, 3], [1, 3, 3, 3, 3], [3, 3, 3, 3, 3], [3, 1, 3, 3, 1], [1, 1, 3, 1, 3]]","[5, 8, 2, 4, 11]",14,2,0,0.041,0.041,0,"[]",0,"random",5,5,5984,0,123,123,8277407663224224768,"attentional-mouselab",5,146509,7
"227","mouselab","False","[]","[[6, 4, 5, 3, 5], [4, 4, 5, 4, 8], [6, 7, 2, 4, 5], [4, 4, 5, 7, 5], [7, 5, 5, 6, 6]]","[[3, 3, 3, 3, 1], [3, 3, 1, 3, 3], [3, 3, 3, 3, 3], [3, 3, 3, 1, 3], [1, 1, 3, 3, 1]]","[1, 12, 1, 8, 8]",20,3,2,0.049,0.049,0,"[]",0,"random",5,5,2715,0,147,147,786859925596966656,"attentional-mouselab",7,155995,7
"228","mouselab","False","[]","[[3, 3, 1, 7, 5], [3, 2, 5, 4, 4], [7, 3, 4, 7, 3], [6, 5, 6, 4, 3], [6, 8, 6, 7, 5]]","[[3, 1, 3, 1, 3], [1, 1, 3, 3, 3], [3, 3, 3, 1, 3], [3, 3, 3, 3, 3], [3, 3, 3, 1, 3]]","[2, 14, 3, 6, 5]",16,4,3,0.05,0.05,0,"[]",0,"greedy",5,5,1100,0,150,150,16934650264103532544,"attentional-mouselab",8,165318,7
"229","mouselab","False","[]","[[5, 3, 5, 5, 8], [8, 5, 3, 7, 8], [6, 2, 7, 7, 4], [1, 5, 5, 8, 5], [4, 4, 9, 4, 6]]","[[3, 3, 3, 3, 3], [1, 3, 3, 3, 1], [3, 3, 3, 1, 3], [3, 3, 3, 1, 1], [3, 3, 1, 3, 3]]","[1, 12, 10, 4, 3]",20,5,0,0.059,0.059,0,"[]",0,"greedy",5,5,1678,0,177,177,1.5206285415028e+19,"attentional-mouselab",9,168545,7
"230","mouselab","False","[]","[[6, 9, 5, 4, 4], [4, 5, 4, 7, 7], [5, 6, 6, 8, 4], [5, 5, 5, 5, 4], [4, 7, 6, 3, 2]]","[[3, 1, 3, 3, 3], [3, 3, 3, 1, 3], [3, 1, 3, 3, 3], [3, 3, 3, 3, 3], [1, 1, 3, 1, 3]]","[6, 10, 10, 3, 1]",16,6,4,0.049,0.049,0,"[]",0,"greedy",5,5,938,0,148,148,6979336750473710592,"attentional-mouselab",10,170819,7
"231","mouselab","False","[]","[[2, 6, 6, 4, 7], [6, 5, 7, 5, 6], [2, 4, 5, 6, 5], [7, 7, 5, 6, 7], [6, 4, 9, 8, 0]]","[[3, 3, 1, 3, 3], [3, 3, 1, 3, 3], [3, 1, 1, 3, 3], [3, 3, 3, 1, 3], [3, 3, 1, 3, 3]]","[1, 6, 15, 2, 6]",18,7,1,0.045,0.045,0,"[]",0,"greedy",5,5,1740,0,134,134,4440491872436955648,"attentional-mouselab",11,174217,7
"232","mouselab","False","[]","[[7, 4, 5, 5, 7], [5, 8, 5, 7, 5], [8, 2, 8, 3, 5], [5, 4, 3, 2, 5], [4, 2, 9, 4, 2]]","[[3, 3, 3, 3, 3], [3, 1, 3, 3, 3], [3, 1, 3, 3, 3], [3, 3, 3, 3, 3], [1, 1, 1, 3, 1]]","[4, 10, 2, 6, 8]",12,8,0,0.052,0.052,0,"[]",0,"extreme",5,5,2963,0,156,156,2947313582469128704,"attentional-mouselab",12,178559,7
"233","mouselab","False","[]","[[5, 4, 7, 6, 6], [6, 5, 7, 4, 5], [5, 8, 5, 3, 4], [6, 4, 7, 4, 7], [3, 5, 7, 7, 5]]","[[1, 3, 3, 3, 3], [1, 3, 3, 3, 3], [3, 1, 1, 3, 3], [3, 3, 3, 3, 1], [3, 1, 3, 3, 3]]","[1, 5, 19, 1, 4]",26,9,1,0.068,0.068,0,"[]",0,"random",5,5,1289,0,205,205,11705659543613181952,"attentional-mouselab",13,182025,7
"234","mouselab","False","[]","[[4, 7, 1, 6, 5], [8, 4, 5, 6, 6], [7, 7, 6, 6, 6], [2, 8, 7, 4, 4], [7, 7, 7, 5, 6]]","[[3, 1, 3, 3, 3], [1, 3, 3, 3, 3], [3, 1, 3, 3, 3], [3, 1, 3, 3, 3], [3, 1, 3, 1, 3]]","[7, 7, 9, 5, 2]",10,10,2,0.048,0.048,0,"[]",0,"greedy",5,5,1469,0,145,145,16853308082521546752,"attentional-mouselab",14,185370,7
"235","mouselab","False","[]","[[5, 4, 4, 8, 3], [7, 5, 6, 6, 9], [6, 3, 4, 3, 5], [5, 5, 8, 7, 4], [4, 4, 3, 5, 6]]","[[3, 3, 3, 1, 3], [3, 3, 1, 3, 1], [3, 1, 3, 3, 3], [3, 3, 1, 1, 3], [3, 3, 3, 3, 3]]","[10, 4, 2, 1, 13]",22,11,1,0.041,0.041,0,"[]",0,"greedy",5,5,1395,0,123,123,10248350623304818688,"attentional-mouselab",15,187771,7
"236","mouselab","False","[]","[[6, 6, 5, 8, 6], [4, 5, 3, 5, 6], [3, 6, 4, 4, 4], [5, 5, 6, 5, 5], [7, 8, 6, 3, 3]]","[[3, 3, 3, 1, 3], [3, 3, 3, 3, 3], [1, 1, 3, 3, 3], [3, 3, 3, 3, 3], [3, 1, 3, 1, 1]]","[3, 6, 3, 5, 13]",14,12,0,0.056,0.056,0,"[]",0,"extreme",5,5,1207,0,167,167,1630070079401352448,"attentional-mouselab",16,190071,7
"237","mouselab","False","[]","[[5, 5, 7, 8, 5], [4, 4, 5, 3, 1], [3, 3, 9, 3, 6], [1, 4, 7, 6, 7], [6, 2, 6, 5, 7]]","[[3, 3, 3, 3, 3], [3, 3, 3, 3, 3], [3, 1, 3, 3, 1], [1, 3, 3, 1, 3], [3, 1, 3, 3, 1]]","[6, 4, 14, 2, 4]",16,13,2,0.075,0.075,0,"[]",0,"random",5,5,895,0,226,226,1575377212769912576,"attentional-mouselab",17,192555,7
"238","mouselab","False","[]","[[5, 5, 8, 4, 4], [5, 6, 3, 8, 4], [6, 5, 5, 8, 5], [2, 4, 6, 5, 6], [5, 6, 4, 6, 5]]","[[1, 3, 3, 3, 3], [1, 3, 3, 3, 3], [1, 3, 3, 3, 3], [3, 1, 1, 3, 3], [3, 3, 3, 3, 1]]","[3, 5, 9, 3, 10]",14,14,3,0.066,0.066,0,"[]",0,"random",5,5,994,0,199,199,9728604777276235776,"attentional-mouselab",18,194682,7
"239","mouselab","False","[]","[[7, 7, 7, 7, 6], [8, 6, 5, 5, 5], [5, 3, 5, 6, 5], [8, 3, 7, 5, 0], [6, 5, 3, 4, 3]]","[[3, 3, 3, 1, 3], [1, 3, 1, 3, 3], [3, 3, 3, 3, 3], [1, 3, 3, 3, 1], [3, 1, 3, 3, 3]]","[7, 2, 8, 7, 6]",8,15,4,0.037,0.037,0,"[]",0,"extreme",5,5,756,0,110,110,17728904569481515008,"attentional-mouselab",19,197127,7
"240","mouselab","False","[]","[[4, 4, 5, 3, 8], [2, 1, 5, 5, 6], [4, 7, 6, 9, 4], [6, 5, 7, 7, 4], [4, 4, 5, 7, 2]]","[[3, 1, 3, 3, 1], [1, 1, 3, 3, 3], [3, 3, 3, 1, 3], [3, 3, 3, 3, 3], [3, 3, 3, 3, 1]]","[2, 9, 2, 15, 2]",24,16,1,0.038,0.038,0,"[]",0,"extreme",5,5,822,0,114,114,7076351468939137024,"attentional-mouselab",20,199189,7
"241","mouselab","False","[]","[[7, 5, 2, 4, 3], [4, 6, 4, 8, 4], [3, 10, 5, 3, 5], [3, 5, 2, 8, 5], [5, 7, 5, 4, 2]]","[[3, 3, 1, 3, 3], [3, 3, 3, 1, 3], [3, 1, 3, 3, 1], [1, 3, 1, 3, 3], [3, 3, 3, 3, 3]]","[1, 9, 1, 8, 11]",20,17,0,0.042,0.042,0,"[]",0,"extreme",5,5,994,0,125,125,1.168711064306e+19,"attentional-mouselab",21,201475,7
"242","mouselab","False","[]","[[6, 1, 6, 8, 6], [6, 5, 2, 5, 3], [5, 5, 6, 1, 2], [6, 7, 7, 6, 6], [3, 6, 4, 5, 4]]","[[3, 1, 3, 1, 3], [3, 3, 3, 3, 3], [3, 3, 3, 1, 3], [3, 3, 3, 1, 1], [3, 3, 3, 3, 1]]","[3, 5, 11, 9, 2]",16,18,2,0.055,0.055,0,"[]",0,"extreme",5,5,810,0,165,165,17646001245902604288,"attentional-mouselab",22,203423,7
"243","mouselab","False","[]","[[7, 2, 4, 4, 4], [6, 5, 8, 5, 5], [6, 6, 3, 5, 3], [7, 4, 1, 3, 6], [7, 5, 6, 6, 3]]","[[3, 1, 3, 3, 3], [3, 1, 1, 3, 3], [3, 3, 3, 3, 3], [1, 3, 1, 1, 3], [3, 3, 3, 3, 3]]","[5, 16, 4, 3, 2]",20,19,3,0.047,0.047,0,"[]",0,"extreme",5,5,1270,0,141,141,6744968927774664704,"attentional-mouselab",23,205895,7
"244","mouselab","False","[]","[[4, 7, 2, 5, 7], [6, 0, 5, 5, 3], [4, 7, 9, 3, 5], [4, 5, 6, 5, 3], [6, 8, 3, 5, 5]]","[[3, 3, 3, 1, 3], [3, 1, 3, 3, 3], [1, 1, 1, 3, 3], [3, 3, 3, 3, 1], [3, 3, 3, 3, 3]]","[3, 14, 4, 2, 7]",18,20,2,0.048,0.048,0,"[]",0,"random",5,5,919,0,145,145,1.4155017157822e+19,"attentional-mouselab",24,208669,7
"245","mouselab","False","[]","[[3, 6, 7, 3, 4], [7, 4, 6, 6, 6], [7, 5, 5, 5, 4], [7, 4, 4, 6, 8], [6, 5, 3, 8, 4]]","[[3, 3, 3, 3, 3], [1, 3, 3, 3, 1], [1, 3, 3, 1, 3], [1, 3, 3, 3, 3], [3, 3, 1, 3, 3]]","[10, 3, 8, 5, 4]",12,21,1,0.051,0.051,0,"[]",0,"greedy",5,5,848,0,152,152,12073779686829373440,"attentional-mouselab",25,210741,7
"246","mouselab","False","[]","[[7, 6, 4, 4, 1], [7, 3, 2, 8, 8], [4, 2, 1, 1, 7], [6, 8, 5, 1, 7], [5, 7, 7, 3, 3]]","[[3, 3, 3, 3, 1], [3, 3, 3, 3, 3], [3, 3, 1, 1, 3], [3, 3, 3, 1, 3], [1, 3, 3, 1, 3]]","[5, 4, 14, 2, 5]",16,22,0,0.052,0.052,0,"[]",0,"extreme",5,5,856,0,156,156,8452305014539187200,"attentional-mouselab",26,212738,7
"247","mouselab","False","[]","[[5, 6, 3, 3, 5], [2, 3, 7, 4, 6], [4, 6, 5, 8, 6], [2, 6, 5, 5, 3], [4, 6, 4, 6, 4]]","[[3, 3, 3, 1, 3], [3, 3, 1, 1, 3], [3, 3, 3, 3, 1], [3, 3, 3, 1, 3], [3, 1, 3, 3, 3]]","[3, 4, 18, 4, 1]",24,23,3,0.065,0.065,0,"[]",0,"random",5,5,829,0,195,195,13210248875398270976,"attentional-mouselab",27,214821,7
"248","mouselab","False","[]","[[4, 4, 4, 6, 6], [7, 7, 3, 8, 7], [5, 4, 5, 6, 6], [7, 4, 3, 7, 7], [5, 4, 6, 5, 3]]","[[3, 3, 3, 3, 3], [1, 3, 3, 1, 3], [1, 3, 3, 3, 3], [1, 3, 1, 3, 3], [3, 3, 3, 3, 1]]","[4, 8, 7, 4, 7]",8,24,3,0.064,0.064,0,"[]",0,"extreme",5,5,1214,0,193,193,12224729846017564672,"attentional-mouselab",28,217001,7
"249","mouselab","False","[]","[[5, 3, 6, 6, 5], [4, 4, 6, 6, 2], [3, 2, 6, 4, 5], [1, 7, 2, 5, 5], [4, 4, 6, 5, 1]]","[[3, 3, 1, 3, 3], [3, 3, 1, 3, 3], [3, 3, 1, 3, 3], [3, 3, 1, 1, 3], [1, 3, 3, 3, 3]]","[3, 13, 3, 5, 6]",14,25,2,0.053,0.053,0,"[]",0,"greedy",5,5,982,0,160,160,18342050109986437120,"attentional-mouselab",29,219329,7
"250","mouselab","False","[]","[[7, 8, 2, 3, 6], [4, 6, 5, 4, 6], [6, 4, 4, 3, 5], [2, 1, 4, 4, 4], [0, 6, 5, 8, 2]]","[[3, 1, 3, 3, 3], [3, 3, 3, 3, 1], [1, 1, 3, 3, 3], [3, 1, 3, 3, 3], [3, 3, 3, 1, 3]]","[7, 10, 6, 4, 3]",10,26,4,0.051,0.051,0,"[]",0,"greedy",5,5,1120,0,154,154,18292687879262590976,"attentional-mouselab",30,221502,7
"251","mouselab","False","[]","[[7, 7, 4, 4, 6], [3, 5, 7, 5, 2], [2, 4, 7, 6, 6], [6, 7, 5, 3, 5], [7, 5, 6, 7, 5]]","[[3, 3, 3, 3, 3], [1, 3, 1, 3, 1], [1, 3, 1, 3, 3], [3, 3, 3, 3, 1], [3, 3, 3, 3, 3]]","[6, 9, 1, 7, 7]",10,27,1,0.058,0.058,0,"[]",0,"extreme",5,5,792,0,175,175,2226231804004674304,"attentional-mouselab",31,223235,7
"252","mouselab","False","[]","[[3, 4, 4, 4, 4], [5, 3, 3, 7, 5], [5, 4, 6, 3, 4], [4, 4, 7, 6, 9], [8, 2, 3, 4, 6]]","[[3, 3, 1, 3, 3], [1, 3, 3, 1, 3], [3, 3, 1, 3, 3], [3, 3, 3, 3, 1], [1, 3, 3, 3, 3]]","[14, 6, 3, 4, 3]",16,28,1,0.036,0.036,0,"[]",0,"greedy",5,5,1007,0,108,108,18043573482929799168,"attentional-mouselab",32,225549,7
"253","mouselab","False","[]","[[5, 2, 4, 4, 3], [5, 5, 7, 5, 5], [5, 10, 6, 4, 6], [5, 9, 1, 5, 5], [5, 3, 3, 7, 5]]","[[3, 3, 3, 3, 3], [1, 3, 1, 1, 1], [3, 3, 3, 3, 3], [3, 1, 3, 3, 3], [1, 3, 3, 3, 3]]","[1, 8, 3, 8, 10]",16,29,2,0.039,0.039,0,"[]",0,"random",5,5,867,0,116,116,5007248402510051328,"attentional-mouselab",33,227797,7
"254","mouselab","False","[]","[[5, 5, 4, 9, 5], [7, 3, 4, 6, 5], [5, 3, 9, 7, 5], [3, 1, 4, 8, 4], [5, 4, 5, 5, 4]]","[[1, 1, 3, 3, 1], [3, 3, 3, 1, 3], [3, 3, 3, 3, 3], [1, 3, 3, 3, 3], [3, 3, 3, 3, 1]]","[15, 1, 12, 1, 1]",30,30,0,0.05,0.05,0,"[]",0,"random",5,5,1466,0,150,150,7287405316727481344,"attentional-mouselab",34,230205,7
"255","mouselab","False","[]","[[6, 3, 8, 4, 4], [5, 4, 3, 6, 7], [4, 4, 4, 7, 5], [2, 7, 7, 6, 4], [4, 4, 3, 7, 4]]","[[3, 3, 3, 3, 3], [3, 3, 1, 3, 3], [3, 3, 3, 1, 3], [3, 1, 3, 3, 3], [1, 1, 3, 1, 3]]","[1, 4, 2, 7, 16]",22,31,1,0.047,0.047,0,"[]",0,"random",5,5,837,0,140,140,3701890134492870144,"attentional-mouselab",35,232337,7
"256","mouselab","False","[]","[[7, 6, 6, 5, 6], [7, 5, 5, 6, 5], [6, 6, 5, 4, 4], [4, 3, 6, 5, 5], [2, 5, 2, 6, 5]]","[[3, 3, 1, 3, 3], [1, 3, 3, 3, 3], [3, 1, 3, 3, 3], [3, 3, 3, 3, 1], [3, 1, 3, 3, 1]]","[2, 8, 5, 9, 6]",10,32,2,0.048,0.048,0,"[]",0,"random",5,5,1231,0,143,143,2446345523251941376,"attentional-mouselab",36,234843,7
"257","mouselab","True","[5, 21, 17, 3, 23, 19, 0, 0, 0, 10, 10, 10, 15, 15, 15, 20, 20, 20]","[[5, 3, 6, 6, 9], [5, 4, 5, 5, 7], [7, 6, 4, 8, 6], [5, 4, 2, 6, 6], [6, 6, 5, 7, 4]]","[[3, 3, 3, 1, 3], [1, 3, 3, 3, 3], [3, 3, 3, 3, 3], [3, 3, 1, 3, 1], [3, 1, 3, 1, 3]]","[3, 15, 7, 2, 3]",20,1,0,0.056,0.05,0.006,"[5, 21, 17, 3, 23, 19, 0, 10, 15, 20]",10,"random",5,5,46498,18,167,149,1448525638988746496,"attentional-mouselab",4,202509,8
"258","mouselab","True","[6, 5, 5, 5, 20, 15, 7, 7, 7, 8, 8, 8, 9, 9, 9, 9, 21, 22, 22, 22, 23, 23, 23, 24, 24, 24, 10, 10, 10]","[[7, 7, 4, 8, 8], [3, 2, 3, 5, 4], [4, 10, 6, 5, 4], [5, 2, 3, 9, 4], [6, 3, 2, 3, 3]]","[[3, 1, 3, 1, 3], [3, 1, 3, 3, 3], [3, 3, 3, 3, 3], [1, 3, 3, 3, 3], [1, 1, 3, 3, 3]]","[3, 11, 3, 5, 8]",14,2,0,0.046,0.0366666666666667,0.00933333333333333,"[6, 5, 20, 15, 7, 8, 9, 21, 22, 23, 24, 10]",12,"random",5,5,37355,28,139,111,16231110758400161792,"attentional-mouselab",5,245794,8
"259","mouselab","False","[15, 16, 18, 19, 23, 14, 10, 10, 10]","[[7, 6, 6, 8, 4], [8, 9, 4, 3, 1], [5, 7, 2, 6, 5], [9, 5, 5, 7, 1], [8, 2, 5, 3, 5]]","[[3, 3, 3, 3, 3], [3, 3, 3, 3, 3], [3, 3, 3, 3, 1], [1, 1, 3, 1, 1], [3, 3, 3, 1, 3]]","[7, 3, 7, 11, 2]",14,3,0,0.074,0.071,0.003,"[15, 16, 18, 19, 23, 14, 10]",7,"random",5,5,26734,9,223,214,10531175009633925120,"attentional-mouselab",7,281002,8
"260","mouselab","False","[16, 20, 1, 8, 14, 4, 18, 18, 18, 23, 23, 23]","[[6, 3, 5, 7, 4], [4, 5, 6, 8, 6], [4, 4, 3, 4, 3], [4, 2, 4, 5, 5], [4, 5, 4, 5, 4]]","[[3, 1, 3, 3, 1], [3, 3, 3, 1, 3], [3, 3, 3, 3, 1], [3, 1, 3, 3, 3], [1, 3, 3, 3, 3]]","[3, 5, 2, 12, 8]",16,4,3,0.056,0.052,0.004,"[16, 20, 1, 8, 14, 4, 18, 23]",8,"extreme",5,5,25560,12,169,157,11487141856461428736,"attentional-mouselab",8,315412,8
"261","mouselab","False","[10, 15, 20, 6, 21, 9, 5, 5, 5]","[[2, 2, 6, 6, 5], [7, 9, 4, 3, 5], [6, 5, 3, 6, 6], [7, 7, 4, 3, 8], [7, 5, 5, 6, 2]]","[[3, 3, 3, 3, 3], [3, 1, 3, 3, 1], [1, 3, 3, 3, 3], [1, 3, 3, 3, 3], [1, 1, 3, 3, 3]]","[1, 12, 3, 7, 7]",16,5,0,0.067,0.064,0.003,"[10, 15, 20, 6, 21, 9, 5]",7,"greedy",5,5,26207,9,202,193,3888920501582865920,"attentional-mouselab",9,345054,8
"262","mouselab","False","[13, 17, 22, 24, 6, 3, 11, 11, 11, 12, 12, 12, 16, 16, 16, 10, 10, 10, 14, 14, 14]","[[7, 4, 6, 5, 7], [4, 7, 5, 8, 1], [6, 5, 7, 3, 5], [5, 4, 3, 8, 6], [4, 1, 5, 5, 4]]","[[3, 3, 3, 1, 3], [3, 1, 3, 3, 3], [3, 3, 3, 1, 3], [3, 3, 1, 3, 3], [3, 3, 1, 3, 1]]","[4, 4, 11, 9, 2]",16,6,2,0.053,0.046,0.007,"[13, 17, 22, 24, 6, 3, 11, 12, 16, 10, 14]",11,"random",5,5,48071,21,158,137,2545730778786350080,"attentional-mouselab",10,395957,8
"263","mouselab","False","[8, 13, 18, 23]","[[4, 1, 2, 6, 8], [5, 6, 5, 6, 5], [5, 5, 6, 6, 5], [6, 5, 4, 5, 5], [5, 3, 4, 6, 6]]","[[3, 3, 3, 3, 1], [3, 3, 3, 1, 3], [3, 3, 1, 1, 3], [3, 3, 3, 1, 3], [3, 3, 3, 1, 3]]","[4, 16, 3, 5, 2]",20,7,3,0.058,0.0566666666666667,0.00133333333333333,"[8, 13, 18, 23]",4,"greedy",5,5,10305,4,175,171,14381166194680141824,"attentional-mouselab",11,409413,8
"264","mouselab","False","[8, 13, 18, 3, 3, 3, 1, 6, 6, 6]","[[0, 4, 6, 1, 6], [6, 7, 2, 7, 4], [5, 4, 0, 7, 7], [4, 5, 8, 8, 3], [6, 4, 5, 6, 3]]","[[3, 1, 3, 3, 3], [3, 3, 3, 1, 3], [3, 3, 3, 1, 3], [3, 3, 1, 1, 3], [1, 3, 3, 3, 3]]","[11, 15, 1, 2, 1]",28,8,1,0.056,0.0526666666666667,0.00333333333333333,"[8, 13, 18, 3, 1, 6]",6,"greedy",5,5,23663,10,167,157,16964746604929771520,"attentional-mouselab",12,435546,8
"265","mouselab","False","[24, 10, 1, 3, 9, 20, 20, 20]","[[4, 1, 6, 4, 4], [7, 5, 7, 4, 1], [9, 5, 8, 6, 6], [2, 4, 4, 4, 5], [7, 7, 3, 6, 5]]","[[3, 1, 3, 1, 3], [3, 3, 3, 3, 1], [1, 3, 3, 3, 3], [1, 3, 3, 3, 3], [3, 3, 3, 3, 1]]","[6, 1, 10, 1, 12]",20,9,0,0.069,0.0663333333333333,0.00266666666666667,"[24, 10, 1, 3, 9, 20]",6,"extreme",5,5,18219,8,207,199,279505447118785984,"attentional-mouselab",13,457172,8
"266","mouselab","False","[13, 9, 6, 11, 11, 11, 14, 14, 14, 8, 8, 8, 10, 10, 10]","[[8, 4, 4, 5, 4], [5, 5, 6, 3, 5], [10, 3, 8, 4, 2], [5, 6, 7, 5, 5], [10, 5, 2, 6, 3]]","[[3, 3, 3, 1, 1], [3, 1, 3, 3, 1], [3, 3, 3, 1, 3], [3, 3, 3, 3, 3], [1, 3, 3, 3, 3]]","[4, 8, 12, 3, 3]",16,10,0,0.079,0.074,0.005,"[13, 9, 6, 11, 14, 8, 10]",7,"random",5,5,44146,15,237,222,7428667766645370880,"attentional-mouselab",14,504896,8
