type,is_practice,click_values,payoff_matrix,cost_matrix,weights,weights_deviation,trial_num,selected_option,gross_earnings,net_earnings,click_cost,uncovered_values,num_values_revealed,nudge_type,num_baskets,num_features,reaction_time,points_click_cost,points_action_utility,points_metalevel_reward,trial_type,trial_index,time_elapsed,participant_id
mouselab,True,"[3, 17, 5, 20, 6, 14, 23, 21, 3, 1, 24, 18, 3, 16, 24, 24, 4, 1, 17, 5, 20, 20, 5, 1, 17, 4, 4, 8, 9, 12, 2, 0, 15, 11, 19, 10, 0, 12, 9, 2, 0, 15, 19, 11, 10, 15, 11, 12, 2, 9, 19, 10, 8, 7, 13, 22, 8, 22, 7, 13, 22, 7, 13]","[[2, 6, 9, 2, 5], [2, 6, 5, 5, 9], [2, 7, 3, 7, 6], [4, 5, 7, 3, 3], [6, 2, 6, 6, 6]]","[[0, 0, 0, 0, 0], [0, 0, 0, 0, 0], [0, 0, 0, 0, 0], [0, 0, 0, 0, 0], [0, 0, 0, 0, 0]]","[11, 16, 1, 1, 1]",30,1,0,0.022,0.0009999999999999974,0.021,"[6, 14, 23, 21, 18, 3, 16, 24, 20, 5, 1, 17, 4, 0, 15, 11, 12, 2, 9, 19, 10, 8, 22, 7, 13]",25,random,5,5,96744,63,66,3,attentional-mouselab,4,211170,0
mouselab,True,[],"[[1, 2, 8, 4, 7], [6, 5, 4, 6, 5], [5, 5, 4, 7, 7], [3, 4, 7, 5, 7], [7, 3, 9, 5, 7]]","[[3, 1, 3, 3, 3], [3, 3, 3, 3, 3], [3, 1, 3, 1, 3], [3, 3, 3, 3, 3], [1, 3, 1, 3, 1]]","[15, 5, 1, 5, 4]",18,2,0,0.031,0.031,0.0,[],0,greedy,5,5,2474,0,93,93,attentional-mouselab,5,217465,0
mouselab,False,[],"[[2, 6, 9, 2, 5], [2, 6, 5, 5, 9], [2, 7, 3, 7, 6], [4, 5, 7, 3, 3], [6, 2, 6, 6, 6]]","[[3, 3, 3, 3, 3], [3, 1, 3, 3, 3], [3, 3, 3, 3, 1], [3, 1, 3, 1, 3], [3, 1, 3, 1, 3]]","[1, 4, 13, 9, 3]",20,3,3,0.053,0.053,0.0,[],0,random,5,5,2051,0,158,158,attentional-mouselab,7,224260,0
mouselab,False,[],"[[1, 2, 8, 4, 7], [6, 5, 4, 6, 5], [5, 5, 4, 7, 7], [3, 4, 7, 5, 7], [7, 3, 9, 5, 7]]","[[3, 1, 3, 3, 3], [3, 3, 3, 3, 3], [3, 1, 3, 1, 3], [3, 3, 3, 3, 3], [1, 3, 1, 3, 1]]","[7, 6, 4, 2, 11]",12,4,1,0.035,0.035,0.0,[],0,greedy,5,5,3399,0,105,105,attentional-mouselab,8,229941,0
mouselab,False,[],"[[5, 7, 6, 3, 4], [4, 5, 6, 0, 5], [5, 3, 4, 7, 7], [8, 6, 3, 8, 6], [4, 6, 5, 5, 6]]","[[1, 3, 3, 3, 3], [3, 3, 1, 1, 3], [3, 3, 1, 3, 3], [3, 3, 1, 3, 3], [1, 3, 3, 3, 3]]","[5, 5, 1, 3, 16]",20,5,3,0.042,0.042,0.0,[],0,random,5,5,1953,0,126,126,attentional-mouselab,9,233565,0
mouselab,False,[],"[[5, 6, 2, 3, 6], [6, 5, 4, 5, 7], [3, 6, 7, 6, 1], [6, 7, 5, 5, 4], [6, 5, 10, 6, 5]]","[[3, 3, 1, 1, 3], [3, 3, 3, 3, 3], [3, 3, 3, 3, 1], [3, 3, 3, 3, 3], [3, 1, 1, 1, 3]]","[12, 1, 14, 1, 2]",28,6,1,0.059,0.059,0.0,[],0,extreme,5,5,1081,0,178,178,attentional-mouselab,10,236227,0
mouselab,False,[],"[[7, 2, 5, 5, 4], [7, 5, 4, 4, 5], [5, 5, 7, 6, 4], [6, 3, 7, 7, 5], [7, 7, 4, 6, 6]]","[[3, 3, 3, 3, 3], [3, 3, 3, 3, 3], [3, 3, 3, 3, 1], [1, 1, 1, 3, 3], [1, 1, 3, 3, 3]]","[10, 3, 4, 10, 3]",16,7,2,0.057,0.057,0.0,[],0,greedy,5,5,918,0,172,172,attentional-mouselab,11,239155,0
mouselab,False,[],"[[4, 6, 6, 8, 6], [4, 5, 8, 7, 4], [5, 4, 5, 6, 4], [1, 5, 4, 7, 5], [4, 2, 8, 7, 9]]","[[3, 3, 3, 1, 3], [3, 3, 3, 1, 3], [3, 3, 3, 3, 3], [1, 3, 1, 3, 3], [3, 3, 1, 3, 1]]","[10, 11, 3, 4, 2]",18,8,0,0.037,0.037,0.0,[],0,extreme,5,5,1231,0,111,111,attentional-mouselab,12,241865,0
mouselab,False,[],"[[5, 7, 5, 2, 7], [3, 6, 7, 3, 3], [4, 9, 2, 3, 5], [4, 4, 4, 5, 6], [5, 4, 3, 6, 6]]","[[3, 3, 3, 3, 1], [3, 3, 1, 3, 3], [3, 1, 1, 3, 3], [3, 1, 1, 3, 3], [3, 3, 3, 3, 3]]","[6, 2, 6, 2, 14]",16,9,4,0.058,0.058,0.0,[],0,greedy,5,5,915,0,174,174,attentional-mouselab,13,244318,0
mouselab,False,[],"[[5, 5, 5, 1, 4], [7, 4, 5, 4, 6], [5, 6, 4, 6, 4], [4, 2, 5, 5, 4], [5, 4, 6, 6, 4]]","[[1, 1, 1, 1, 3], [3, 3, 3, 3, 3], [3, 3, 3, 3, 3], [1, 3, 3, 1, 3], [3, 3, 3, 3, 3]]","[2, 3, 8, 8, 9]",14,10,0,0.049,0.049,0.0,[],0,random,5,5,1059,0,148,148,attentional-mouselab,14,247219,0
mouselab,False,[],"[[5, 5, 10, 7, 8], [4, 3, 4, 4, 7], [6, 6, 6, 2, 5], [5, 5, 5, 5, 5], [7, 6, 5, 7, 5]]","[[3, 3, 1, 1, 1], [3, 3, 3, 3, 3], [3, 3, 3, 3, 3], [3, 3, 3, 3, 1], [1, 1, 3, 3, 3]]","[5, 6, 8, 9, 2]",10,11,1,0.049,0.049,0.0,[],0,greedy,5,5,3258,0,148,148,attentional-mouselab,15,252439,0
mouselab,False,[],"[[7, 3, 6, 8, 5], [4, 7, 7, 5, 5], [8, 5, 3, 6, 9], [5, 5, 7, 2, 7], [3, 3, 5, 5, 5]]","[[3, 3, 3, 1, 3], [3, 3, 3, 1, 3], [1, 3, 3, 3, 1], [3, 3, 3, 1, 1], [3, 3, 3, 3, 3]]","[6, 3, 11, 6, 4]",10,12,3,0.054,0.054,0.0,[],0,extreme,5,5,791,0,161,161,attentional-mouselab,16,254833,0
mouselab,False,[],"[[5, 7, 7, 5, 5], [5, 4, 6, 5, 7], [5, 5, 7, 6, 5], [3, 10, 7, 8, 3], [7, 4, 5, 8, 3]]","[[3, 1, 3, 1, 3], [3, 3, 3, 1, 1], [3, 3, 3, 3, 1], [3, 3, 3, 3, 3], [3, 3, 3, 3, 1]]","[12, 9, 2, 5, 2]",18,13,0,0.048,0.048,0.0,[],0,random,5,5,842,0,144,144,attentional-mouselab,17,257016,0
mouselab,False,[],"[[5, 5, 2, 6, 3], [4, 4, 8, 4, 6], [4, 3, 3, 4, 6], [2, 6, 5, 5, 7], [8, 6, 5, 4, 4]]","[[3, 3, 3, 3, 3], [3, 1, 1, 3, 3], [3, 1, 1, 3, 3], [3, 3, 3, 3, 1], [1, 3, 3, 3, 3]]","[7, 10, 4, 3, 6]",10,14,2,0.05,0.05,0.0,[],0,greedy,5,5,1191,0,151,151,attentional-mouselab,18,259866,0
mouselab,False,[],"[[6, 6, 5, 7, 5], [7, 3, 4, 6, 5], [6, 2, 4, 7, 6], [6, 8, 3, 5, 7], [1, 6, 4, 6, 8]]","[[3, 1, 3, 3, 3], [3, 3, 3, 3, 3], [3, 1, 3, 1, 3], [3, 1, 3, 3, 3], [1, 3, 3, 1, 3]]","[2, 2, 6, 17, 3]",22,15,1,0.061,0.061,0.0,[],0,extreme,5,5,898,0,184,184,attentional-mouselab,19,262208,0
mouselab,False,[],"[[3, 6, 3, 7, 2], [3, 3, 6, 4, 5], [5, 5, 5, 5, 3], [5, 7, 6, 3, 5], [7, 4, 7, 4, 0]]","[[1, 3, 1, 1, 1], [3, 1, 3, 3, 3], [3, 3, 3, 3, 3], [3, 3, 3, 3, 3], [3, 3, 3, 3, 1]]","[1, 3, 4, 12, 10]",20,16,4,0.03,0.03,0.0,[],0,extreme,5,5,718,0,89,89,attentional-mouselab,20,264288,0
mouselab,False,[],"[[5, 4, 7, 4, 9], [7, 5, 9, 6, 5], [3, 4, 5, 5, 4], [4, 4, 4, 8, 7], [4, 3, 6, 6, 7]]","[[1, 3, 3, 3, 3], [1, 3, 1, 3, 3], [1, 3, 3, 3, 1], [3, 3, 3, 1, 3], [3, 3, 3, 3, 3]]","[1, 11, 7, 9, 2]",18,17,2,0.063,0.063,0.0,[],0,random,5,5,865,0,189,189,attentional-mouselab,21,267784,0
mouselab,False,[],"[[7, 3, 5, 5, 5], [2, 8, 7, 3, 4], [7, 3, 3, 4, 4], [3, 4, 5, 6, 4], [5, 6, 5, 4, 3]]","[[3, 3, 3, 3, 3], [1, 3, 3, 3, 3], [3, 1, 1, 3, 3], [3, 3, 1, 1, 3], [3, 1, 3, 3, 3]]","[2, 10, 3, 10, 5]",16,18,0,0.037,0.037,0.0,[],0,random,5,5,1020,0,110,110,attentional-mouselab,22,270041,0
mouselab,False,[],"[[3, 8, 2, 3, 7], [6, 4, 4, 3, 3], [7, 5, 7, 5, 3], [5, 5, 6, 5, 4], [3, 7, 4, 2, 6]]","[[3, 1, 1, 3, 3], [3, 3, 3, 3, 3], [1, 3, 3, 3, 3], [3, 3, 3, 3, 1], [3, 3, 1, 1, 3]]","[6, 8, 2, 8, 6]",8,19,1,0.057,0.057,0.0,[],0,extreme,5,5,1063,0,172,172,attentional-mouselab,23,272516,0
mouselab,False,[],"[[6, 4, 6, 6, 5], [2, 3, 8, 5, 4], [6, 9, 7, 4, 7], [5, 3, 3, 7, 4], [8, 2, 3, 3, 6]]","[[1, 3, 3, 3, 3], [3, 3, 3, 3, 3], [1, 1, 1, 3, 1], [3, 3, 3, 3, 3], [3, 3, 3, 3, 1]]","[4, 5, 4, 4, 13]",14,20,2,0.048,0.048,0.0,[],0,greedy,5,5,886,0,143,143,attentional-mouselab,24,274476,0
mouselab,False,[],"[[5, 6, 5, 3, 6], [5, 4, 6, 6, 6], [5, 5, 2, 4, 3], [4, 6, 2, 6, 5], [2, 4, 3, 5, 5]]","[[3, 3, 3, 3, 3], [3, 3, 3, 3, 3], [3, 3, 1, 3, 3], [3, 3, 1, 3, 1], [1, 1, 3, 3, 1]]","[5, 2, 15, 4, 4]",18,21,3,0.044,0.044,0.0,[],0,extreme,5,5,964,0,131,131,attentional-mouselab,25,276713,0
mouselab,False,[],"[[7, 5, 6, 8, 7], [6, 3, 6, 6, 6], [5, 6, 4, 6, 7], [3, 5, 7, 5, 5], [3, 3, 5, 4, 2]]","[[1, 3, 3, 3, 3], [3, 3, 3, 1, 3], [3, 3, 1, 3, 3], [1, 3, 1, 3, 3], [3, 3, 3, 3, 1]]","[5, 11, 8, 5, 1]",14,22,0,0.053,0.053,0.0,[],0,random,5,5,966,0,159,159,attentional-mouselab,26,278881,0
mouselab,False,[],"[[6, 7, 9, 7, 8], [5, 4, 6, 5, 6], [5, 6, 4, 7, 5], [5, 4, 5, 8, 0], [4, 3, 4, 8, 5]]","[[3, 3, 3, 3, 3], [3, 3, 1, 1, 3], [3, 3, 1, 1, 3], [3, 3, 3, 3, 3], [1, 3, 1, 3, 3]]","[18, 3, 3, 5, 1]",24,23,2,0.074,0.074,0.0,[],0,random,5,5,886,0,221,221,attentional-mouselab,27,280900,0
mouselab,False,[],"[[5, 2, 5, 4, 3], [6, 4, 5, 4, 6], [2, 6, 5, 7, 2], [4, 2, 6, 8, 4], [4, 5, 9, 6, 6]]","[[3, 1, 3, 3, 1], [3, 3, 3, 3, 1], [1, 3, 3, 3, 3], [3, 3, 3, 3, 3], [3, 3, 1, 1, 3]]","[3, 15, 6, 5, 1]",18,24,3,0.053,0.053,0.0,[],0,extreme,5,5,885,0,160,160,attentional-mouselab,28,282896,0
mouselab,False,[],"[[3, 2, 5, 5, 6], [7, 6, 7, 2, 7], [6, 6, 6, 6, 5], [5, 4, 9, 6, 4], [8, 4, 3, 6, 2]]","[[3, 3, 3, 3, 3], [1, 1, 3, 1, 1], [3, 3, 3, 3, 3], [3, 3, 1, 3, 3], [3, 3, 1, 3, 3]]","[1, 9, 5, 8, 7]",12,25,1,0.049,0.049,0.0,[],0,greedy,5,5,669,0,146,146,attentional-mouselab,29,284689,0
mouselab,False,[],"[[6, 6, 5, 5, 5], [8, 7, 4, 1, 6], [5, 5, 7, 6, 7], [3, 5, 6, 4, 6], [3, 4, 10, 7, 7]]","[[3, 1, 3, 1, 3], [1, 3, 3, 1, 3], [3, 3, 3, 3, 3], [3, 3, 3, 3, 1], [3, 3, 1, 3, 3]]","[4, 8, 7, 5, 6]",6,26,4,0.063,0.063,0.0,[],0,extreme,5,5,840,0,189,189,attentional-mouselab,30,286738,0
mouselab,False,[],"[[4, 4, 2, 4, 8], [6, 7, 3, 3, 6], [8, 3, 7, 6, 8], [6, 5, 10, 3, 6], [5, 4, 5, 4, 5]]","[[1, 3, 3, 1, 1], [1, 1, 1, 3, 3], [3, 3, 3, 3, 3], [3, 3, 3, 3, 3], [3, 3, 3, 3, 3]]","[2, 9, 5, 9, 5]",12,27,4,0.063,0.063,0.0,[],0,random,5,5,1093,0,189,189,attentional-mouselab,31,289120,0
mouselab,False,[],"[[3, 6, 6, 6, 4], [2, 3, 5, 2, 5], [6, 5, 5, 8, 2], [8, 6, 6, 5, 5], [6, 5, 8, 8, 7]]","[[3, 3, 3, 3, 3], [1, 3, 1, 1, 3], [3, 3, 3, 1, 1], [3, 3, 3, 3, 3], [1, 3, 3, 3, 3]]","[9, 6, 2, 7, 6]",8,28,4,0.049,0.049,0.0,[],0,extreme,5,5,1701,0,147,147,attentional-mouselab,32,292572,0
mouselab,False,[],"[[3, 5, 5, 3, 3], [5, 3, 5, 3, 4], [4, 5, 2, 1, 2], [0, 3, 1, 7, 7], [5, 6, 7, 6, 3]]","[[3, 3, 1, 1, 3], [3, 3, 3, 3, 3], [3, 3, 3, 1, 3], [1, 3, 3, 3, 1], [3, 3, 3, 1, 3]]","[2, 20, 2, 2, 4]",28,29,0,0.045,0.045,0.0,[],0,random,5,5,883,0,134,134,attentional-mouselab,33,297098,0
mouselab,False,[],"[[6, 8, 7, 5, 2], [4, 5, 3, 4, 6], [5, 2, 4, 7, 4], [4, 4, 1, 5, 2], [5, 4, 6, 5, 6]]","[[3, 1, 1, 1, 3], [1, 3, 3, 3, 3], [1, 3, 3, 3, 3], [3, 3, 3, 3, 3], [3, 1, 3, 3, 3]]","[3, 11, 4, 7, 5]",12,30,3,0.049,0.049,0.0,[],0,greedy,5,5,983,0,147,147,attentional-mouselab,34,299602,0
mouselab,False,[],"[[3, 3, 5, 7, 8], [3, 5, 6, 9, 5], [3, 6, 5, 3, 5], [3, 6, 4, 3, 3], [4, 4, 6, 4, 4]]","[[3, 3, 3, 3, 1], [3, 3, 1, 1, 3], [1, 1, 3, 3, 3], [3, 3, 1, 3, 3], [3, 3, 3, 3, 3]]","[5, 13, 6, 1, 5]",14,31,1,0.047,0.047,0.0,[],0,greedy,5,5,868,0,142,142,attentional-mouselab,35,301992,0
mouselab,False,[],"[[7, 3, 6, 5, 3], [3, 5, 7, 8, 6], [8, 5, 5, 3, 2], [5, 4, 1, 5, 5], [4, 6, 7, 4, 6]]","[[3, 3, 1, 3, 3], [3, 3, 1, 1, 3], [1, 1, 3, 1, 3], [3, 3, 3, 3, 3], [3, 3, 3, 3, 3]]","[2, 2, 6, 18, 2]",24,32,4,0.044,0.044,0.0,[],0,greedy,5,5,897,0,132,132,attentional-mouselab,36,304979,0
mouselab,True,[],"[[6, 7, 5, 7, 8], [0, 3, 6, 6, 6], [5, 7, 4, 6, 6], [6, 6, 5, 5, 6], [6, 6, 3, 8, 4]]","[[3, 1, 3, 1, 1], [1, 3, 3, 3, 3], [3, 3, 3, 3, 3], [1, 3, 1, 3, 3], [3, 3, 3, 3, 3]]","[1, 3, 6, 6, 14]",16,1,0,0.052,0.052,0.0,[],0,greedy,5,5,9474,0,156,156,attentional-mouselab,4,100211,1
mouselab,True,[],"[[6, 8, 7, 2, 6], [6, 5, 9, 5, 5], [6, 6, 6, 3, 4], [2, 7, 4, 6, 4], [9, 4, 7, 5, 4]]","[[3, 1, 3, 3, 3], [1, 3, 1, 3, 3], [1, 3, 3, 3, 3], [3, 3, 3, 3, 1], [1, 3, 3, 3, 3]]","[6, 9, 7, 2, 6]",8,2,0,0.063,0.063,0.0,[],0,extreme,5,5,5934,0,190,190,attentional-mouselab,5,109483,1
mouselab,False,[],"[[6, 7, 5, 7, 8], [0, 3, 6, 6, 6], [5, 7, 4, 6, 6], [6, 6, 5, 5, 6], [6, 6, 3, 8, 4]]","[[3, 1, 3, 1, 1], [1, 3, 3, 3, 3], [3, 3, 3, 3, 3], [1, 3, 1, 3, 3], [3, 3, 3, 3, 3]]","[1, 10, 8, 10, 1]",20,3,1,0.053,0.053,0.0,[],0,greedy,5,5,13871,0,159,159,attentional-mouselab,7,128065,1
mouselab,False,[],"[[6, 8, 7, 2, 6], [6, 5, 9, 5, 5], [6, 6, 6, 3, 4], [2, 7, 4, 6, 4], [9, 4, 7, 5, 4]]","[[3, 1, 3, 3, 3], [1, 3, 1, 3, 3], [1, 3, 3, 3, 3], [3, 3, 3, 3, 1], [1, 3, 3, 3, 3]]","[1, 2, 8, 11, 8]",18,4,1,0.058,0.058,0.0,[],0,extreme,5,5,9535,0,175,175,attentional-mouselab,8,139316,1
mouselab,False,[],"[[6, 6, 4, 3, 6], [6, 4, 1, 6, 5], [6, 5, 6, 5, 10], [6, 6, 6, 3, 7], [5, 6, 5, 2, 8]]","[[3, 3, 3, 3, 3], [3, 1, 3, 1, 3], [3, 3, 3, 3, 1], [3, 1, 1, 3, 3], [3, 3, 3, 3, 1]]","[5, 15, 1, 4, 5]",18,5,0,0.058,0.058,0.0,[],0,random,5,5,3586,0,175,175,attentional-mouselab,9,144742,1
mouselab,False,[],"[[5, 9, 4, 4, 5], [5, 5, 4, 6, 5], [4, 4, 3, 1, 4], [4, 4, 5, 7, 2], [3, 3, 6, 3, 3]]","[[3, 1, 3, 3, 3], [3, 3, 3, 3, 3], [3, 1, 1, 1, 3], [3, 3, 1, 3, 1], [3, 3, 3, 3, 3]]","[1, 2, 3, 2, 22]",32,6,0,0.034,0.034,0.0,[],0,extreme,5,5,1549,0,101,101,attentional-mouselab,10,147924,1
mouselab,False,[],"[[5, 7, 5, 6, 5], [8, 3, 3, 5, 4], [8, 7, 5, 6, 7], [8, 6, 5, 6, 6], [3, 4, 5, 2, 4]]","[[3, 3, 3, 3, 3], [3, 3, 3, 3, 3], [1, 1, 3, 3, 1], [3, 1, 3, 3, 3], [3, 1, 1, 3, 3]]","[2, 6, 14, 3, 5]",16,7,3,0.051,0.051,0.0,[],0,greedy,5,5,1982,0,154,154,attentional-mouselab,11,151270,1
mouselab,False,[],"[[5, 4, 3, 3, 5], [4, 5, 7, 5, 8], [4, 5, 6, 5, 7], [7, 6, 6, 5, 3], [6, 3, 5, 3, 6]]","[[3, 3, 1, 1, 3], [3, 3, 1, 3, 1], [3, 3, 3, 3, 1], [3, 3, 3, 3, 3], [3, 3, 3, 3, 1]]","[2, 3, 1, 14, 10]",24,8,1,0.047,0.047,0.0,[],0,extreme,5,5,2667,0,142,142,attentional-mouselab,12,155191,1
mouselab,False,[],"[[4, 4, 6, 7, 6], [4, 6, 3, 6, 7], [3, 7, 9, 6, 8], [3, 5, 7, 5, 5], [4, 6, 5, 6, 4]]","[[3, 3, 1, 3, 1], [3, 3, 1, 3, 3], [3, 3, 3, 3, 3], [3, 3, 3, 1, 3], [1, 3, 3, 3, 1]]","[13, 8, 1, 2, 6]",18,9,1,0.051,0.051,0.0,[],0,random,5,5,1387,0,153,153,attentional-mouselab,13,157833,1
mouselab,False,[],"[[2, 4, 7, 7, 4], [8, 3, 5, 7, 7], [5, 7, 4, 1, 7], [5, 7, 6, 5, 3], [5, 4, 8, 7, 8]]","[[1, 3, 1, 3, 3], [1, 3, 3, 3, 3], [3, 3, 3, 1, 1], [3, 3, 3, 3, 3], [3, 3, 1, 3, 3]]","[3, 8, 2, 8, 9]",14,10,1,0.047,0.047,0.0,[],0,extreme,5,5,1349,0,142,142,attentional-mouselab,14,160486,1
mouselab,False,[],"[[7, 5, 6, 5, 4], [4, 8, 6, 5, 6], [6, 4, 5, 6, 5], [4, 6, 4, 6, 3], [5, 7, 5, 3, 4]]","[[1, 3, 1, 3, 3], [1, 1, 3, 3, 3], [3, 3, 3, 3, 3], [3, 1, 3, 3, 1], [3, 3, 3, 3, 3]]","[7, 8, 6, 4, 5]",6,11,3,0.05,0.05,0.0,[],0,extreme,5,5,1294,0,150,150,attentional-mouselab,15,163103,1
mouselab,False,[],"[[5, 5, 6, 1, 6], [3, 7, 5, 5, 4], [4, 7, 7, 6, 4], [5, 7, 4, 6, 5], [5, 5, 3, 5, 5]]","[[3, 3, 3, 3, 3], [3, 1, 3, 3, 3], [1, 1, 3, 3, 3], [3, 3, 3, 1, 3], [3, 3, 3, 1, 1]]","[13, 7, 6, 3, 1]",16,12,2,0.057,0.057,0.0,[],0,random,5,5,1403,0,170,170,attentional-mouselab,16,165754,1
mouselab,False,[],"[[4, 6, 6, 6, 9], [4, 5, 5, 6, 3], [7, 7, 6, 4, 3], [6, 5, 5, 4, 5], [6, 3, 4, 8, 4]]","[[3, 1, 3, 3, 3], [3, 3, 3, 3, 3], [1, 3, 3, 1, 3], [1, 3, 3, 3, 1], [1, 3, 3, 3, 3]]","[4, 10, 8, 4, 4]",12,13,2,0.053,0.053,0.0,[],0,random,5,5,1098,0,158,158,attentional-mouselab,17,168060,1
mouselab,False,[],"[[6, 5, 5, 3, 5], [4, 7, 3, 6, 4], [3, 6, 5, 5, 3], [6, 2, 4, 6, 4], [7, 4, 4, 5, 5]]","[[3, 3, 3, 1, 1], [3, 1, 3, 3, 3], [3, 3, 3, 3, 3], [3, 1, 3, 3, 1], [3, 3, 1, 3, 3]]","[9, 4, 2, 11, 4]",16,14,0,0.057,0.057,0.0,[],0,extreme,5,5,1433,0,170,170,attentional-mouselab,18,170863,1
mouselab,False,[],"[[6, 4, 0, 6, 5], [7, 7, 5, 4, 7], [5, 3, 6, 2, 3], [6, 6, 3, 3, 5], [6, 6, 8, 8, 6]]","[[3, 3, 3, 3, 3], [3, 3, 3, 3, 3], [3, 1, 3, 3, 1], [1, 3, 3, 3, 3], [1, 3, 1, 1, 3]]","[1, 4, 1, 22, 2]",32,15,4,0.053,0.053,0.0,[],0,greedy,5,5,6038,0,158,158,attentional-mouselab,19,178606,1
mouselab,False,[],"[[6, 2, 3, 6, 1], [5, 6, 4, 3, 6], [5, 3, 2, 3, 7], [6, 6, 8, 4, 4], [5, 8, 5, 6, 7]]","[[3, 3, 3, 1, 3], [3, 3, 3, 3, 3], [3, 3, 3, 3, 3], [1, 1, 1, 3, 3], [3, 1, 3, 3, 1]]","[14, 1, 10, 2, 3]",24,16,4,0.04,0.04,0.0,[],0,greedy,5,5,7735,0,119,119,attentional-mouselab,20,188062,1
mouselab,False,[],"[[4, 2, 4, 6, 5], [5, 4, 5, 4, 3], [3, 4, 3, 7, 4], [3, 6, 4, 4, 5], [5, 4, 7, 5, 6]]","[[3, 1, 3, 3, 3], [3, 1, 1, 3, 3], [3, 3, 3, 3, 1], [3, 3, 3, 3, 3], [3, 3, 1, 3, 1]]","[1, 5, 4, 3, 17]",22,17,0,0.045,0.045,0.0,[],0,greedy,5,5,1643,0,135,135,attentional-mouselab,21,191408,1
mouselab,False,[],"[[8, 3, 9, 3, 3], [4, 2, 8, 5, 7], [4, 6, 5, 1, 5], [4, 5, 3, 6, 5], [6, 5, 3, 4, 7]]","[[1, 3, 3, 3, 1], [3, 3, 1, 3, 1], [3, 3, 3, 3, 3], [3, 1, 3, 1, 3], [3, 3, 3, 3, 3]]","[6, 1, 12, 2, 9]",18,18,1,0.049,0.049,0.0,[],0,greedy,5,5,5998,0,147,147,attentional-mouselab,22,198796,1
mouselab,False,[],"[[4, 4, 5, 6, 4], [7, 4, 2, 4, 4], [9, 4, 5, 5, 6], [6, 5, 5, 7, 8], [7, 7, 5, 4, 4]]","[[1, 1, 3, 3, 3], [3, 3, 3, 3, 3], [1, 3, 3, 3, 3], [1, 1, 3, 1, 3], [3, 3, 3, 3, 3]]","[1, 4, 15, 6, 4]",18,19,2,0.046,0.046,0.0,[],0,random,5,5,1925,0,138,138,attentional-mouselab,23,202326,1
mouselab,False,[],"[[6, 6, 7, 5, 4], [2, 3, 5, 5, 3], [3, 6, 2, 4, 4], [5, 6, 4, 4, 5], [8, 2, 7, 5, 5]]","[[3, 3, 3, 1, 3], [1, 3, 3, 1, 3], [3, 3, 3, 3, 3], [3, 3, 1, 3, 3], [3, 1, 1, 3, 3]]","[2, 9, 3, 2, 14]",22,20,4,0.042,0.042,0.0,[],0,random,5,5,1626,0,127,127,attentional-mouselab,24,205291,1
mouselab,False,[],"[[5, 7, 6, 6, 6], [5, 5, 5, 3, 5], [7, 2, 5, 5, 9], [3, 6, 3, 6, 8], [7, 3, 4, 6, 4]]","[[3, 1, 3, 3, 3], [3, 3, 3, 3, 3], [1, 3, 1, 3, 1], [3, 3, 3, 3, 3], [3, 3, 3, 1, 1]]","[1, 11, 11, 2, 5]",20,21,1,0.037,0.037,0.0,[],0,greedy,5,5,5930,0,111,111,attentional-mouselab,25,212598,1
mouselab,False,[],"[[7, 3, 5, 5, 5], [2, 8, 7, 3, 4], [7, 3, 3, 4, 4], [3, 4, 5, 6, 4], [5, 6, 5, 4, 3]]","[[3, 3, 3, 3, 3], [1, 3, 3, 3, 3], [3, 1, 1, 3, 3], [3, 3, 1, 1, 3], [3, 1, 3, 3, 3]]","[5, 11, 4, 2, 8]",14,22,4,0.039,0.039,0.0,[],0,random,5,5,1351,0,117,117,attentional-mouselab,26,215580,1
mouselab,False,[],"[[7, 6, 7, 6, 4], [6, 3, 5, 5, 7], [8, 3, 5, 7, 8], [5, 4, 7, 4, 5], [5, 4, 6, 6, 9]]","[[3, 3, 1, 3, 3], [3, 3, 3, 3, 3], [3, 1, 3, 3, 3], [3, 1, 3, 1, 3], [3, 3, 1, 3, 1]]","[3, 2, 3, 11, 11]",20,23,0,0.056,0.056,0.0,[],0,random,5,5,1983,0,167,167,attentional-mouselab,27,219469,1
mouselab,False,[],"[[6, 4, 3, 3, 7], [5, 7, 8, 2, 4], [5, 7, 8, 6, 4], [4, 4, 6, 5, 6], [8, 6, 2, 7, 7]]","[[3, 1, 3, 3, 3], [3, 3, 1, 1, 3], [3, 3, 1, 3, 3], [3, 3, 1, 3, 3], [3, 3, 3, 1, 3]]","[6, 9, 9, 3, 3]",12,24,0,0.054,0.054,0.0,[],0,extreme,5,5,1805,0,162,162,attentional-mouselab,28,222530,1
mouselab,False,[],"[[5, 1, 9, 7, 7], [3, 6, 8, 3, 6], [7, 2, 1, 3, 6], [7, 5, 7, 3, 2], [5, 6, 3, 5, 2]]","[[3, 3, 1, 1, 3], [3, 3, 3, 1, 3], [3, 3, 3, 3, 3], [1, 3, 1, 3, 1], [3, 3, 3, 3, 3]]","[8, 12, 6, 2, 2]",16,25,1,0.038,0.038,0.0,[],0,greedy,5,5,1652,0,114,114,attentional-mouselab,29,225431,1
mouselab,False,[],"[[4, 6, 5, 7, 6], [10, 4, 5, 4, 4], [0, 3, 5, 5, 3], [4, 6, 6, 6, 0], [4, 4, 4, 7, 5]]","[[3, 3, 1, 3, 3], [1, 3, 3, 3, 3], [1, 3, 3, 3, 3], [3, 3, 3, 1, 1], [3, 3, 3, 3, 1]]","[3, 6, 11, 1, 9]",16,26,1,0.039,0.039,0.0,[],0,extreme,5,5,2648,0,117,117,attentional-mouselab,30,229417,1
mouselab,False,[],"[[3, 6, 5, 5, 2], [7, 8, 3, 5, 4], [4, 6, 5, 5, 4], [7, 6, 3, 8, 7], [6, 7, 3, 4, 5]]","[[1, 3, 3, 3, 1], [3, 1, 3, 3, 3], [3, 1, 3, 3, 3], [3, 3, 3, 1, 1], [3, 3, 3, 3, 3]]","[1, 2, 18, 7, 2]",26,27,2,0.043,0.043,0.0,[],0,extreme,5,5,1865,0,128,128,attentional-mouselab,31,232695,1
mouselab,False,[],"[[4, 7, 5, 5, 7], [2, 2, 5, 1, 6], [9, 4, 5, 4, 8], [6, 5, 4, 2, 5], [6, 5, 4, 2, 3]]","[[3, 1, 1, 3, 3], [1, 1, 3, 3, 3], [3, 1, 3, 3, 3], [3, 3, 3, 3, 3], [3, 3, 3, 3, 1]]","[7, 2, 2, 9, 10]",16,28,3,0.028,0.028,0.0,[],0,random,5,5,2004,0,83,83,attentional-mouselab,32,236247,1
mouselab,False,[],"[[4, 4, 8, 3, 7], [5, 4, 8, 4, 2], [4, 4, 3, 5, 5], [5, 7, 2, 3, 3], [5, 5, 4, 2, 2]]","[[1, 1, 3, 3, 1], [3, 1, 1, 3, 3], [3, 3, 3, 3, 3], [3, 3, 3, 3, 3], [3, 1, 3, 3, 3]]","[8, 2, 7, 3, 10]",14,29,3,0.032,0.032,0.0,[],0,random,5,5,1611,0,96,96,attentional-mouselab,33,239201,1
mouselab,False,[],"[[3, 4, 3, 3, 5], [6, 7, 7, 6, 5], [8, 8, 4, 6, 5], [8, 5, 4, 3, 5], [4, 6, 6, 3, 5]]","[[3, 3, 3, 3, 1], [3, 3, 1, 3, 3], [1, 1, 3, 1, 3], [3, 3, 3, 3, 1], [3, 3, 3, 3, 3]]","[2, 4, 11, 1, 12]",22,30,2,0.051,0.051,0.0,[],0,greedy,5,5,4375,0,154,154,attentional-mouselab,34,244965,1
mouselab,False,[],"[[7, 10, 4, 5, 6], [3, 4, 6, 5, 6], [6, 4, 8, 6, 4], [7, 8, 5, 5, 5], [8, 4, 5, 5, 2]]","[[3, 1, 3, 3, 3], [3, 3, 3, 3, 3], [3, 1, 1, 3, 3], [3, 1, 3, 3, 3], [1, 1, 3, 3, 3]]","[4, 9, 3, 2, 12]",18,31,4,0.041,0.041,0.0,[],0,extreme,5,5,1797,0,124,124,attentional-mouselab,35,248119,1
mouselab,False,[],"[[4, 6, 4, 6, 5], [5, 5, 5, 9, 8], [5, 5, 5, 4, 6], [6, 4, 9, 5, 2], [6, 5, 5, 5, 8]]","[[3, 3, 3, 3, 3], [3, 3, 3, 1, 1], [3, 3, 3, 3, 1], [3, 3, 1, 3, 1], [1, 3, 3, 3, 3]]","[2, 2, 15, 9, 2]",24,32,1,0.048,0.048,0.0,[],0,greedy,5,5,1706,0,143,143,attentional-mouselab,36,251663,1
mouselab,True,[],"[[3, 1, 6, 6, 7], [5, 7, 7, 5, 3], [7, 3, 6, 5, 5], [2, 6, 7, 5, 5], [8, 4, 7, 5, 5]]","[[3, 3, 3, 3, 1], [3, 1, 3, 3, 3], [1, 3, 3, 3, 3], [1, 3, 3, 3, 3], [1, 3, 1, 3, 3]]","[2, 2, 13, 11, 2]",24,1,0,0.048,0.048,0.0,[],0,greedy,5,5,4915,0,145,145,attentional-mouselab,4,157363,2
mouselab,True,[],"[[2, 4, 7, 7, 4], [8, 3, 5, 7, 7], [5, 7, 4, 1, 7], [5, 7, 6, 5, 3], [5, 4, 8, 7, 8]]","[[1, 3, 1, 3, 3], [3, 1, 3, 3, 3], [3, 3, 1, 3, 1], [3, 3, 3, 1, 3], [3, 3, 3, 3, 3]]","[3, 10, 6, 8, 3]",12,2,2,0.056,0.056,0.0,[],0,random,5,5,4344,0,167,167,attentional-mouselab,5,171488,2
mouselab,False,[],"[[3, 1, 6, 6, 7], [5, 7, 7, 5, 3], [7, 3, 6, 5, 5], [2, 6, 7, 5, 5], [8, 4, 7, 5, 5]]","[[3, 3, 3, 3, 1], [3, 1, 3, 3, 3], [1, 3, 3, 3, 3], [1, 3, 3, 3, 3], [1, 3, 1, 3, 3]]","[7, 1, 2, 1, 19]",28,3,0,0.065,0.065,0.0,[],0,greedy,5,5,2942,0,194,194,attentional-mouselab,7,184972,2
mouselab,False,[],"[[2, 4, 7, 7, 4], [8, 3, 5, 7, 7], [5, 7, 4, 1, 7], [5, 7, 6, 5, 3], [5, 4, 8, 7, 8]]","[[1, 3, 1, 3, 3], [3, 1, 3, 3, 3], [3, 3, 1, 3, 1], [3, 3, 3, 1, 3], [3, 3, 3, 3, 3]]","[4, 5, 8, 8, 5]",8,4,2,0.058,0.058,0.0,[],0,random,5,5,1986,0,173,173,attentional-mouselab,8,190571,2
mouselab,False,[],"[[6, 5, 7, 3, 5], [4, 5, 4, 7, 2], [4, 7, 4, 4, 5], [5, 6, 8, 2, 5], [5, 8, 5, 5, 4]]","[[1, 3, 3, 3, 3], [3, 1, 3, 3, 3], [3, 3, 3, 1, 3], [3, 3, 1, 1, 3], [3, 1, 3, 3, 3]]","[8, 10, 2, 6, 4]",12,5,3,0.045,0.045,0.0,[],0,greedy,5,5,1550,0,134,134,attentional-mouselab,9,194365,2
mouselab,False,[],"[[3, 7, 3, 7, 5], [7, 1, 7, 6, 9], [4, 5, 4, 1, 4], [7, 7, 9, 2, 4], [5, 7, 7, 3, 4]]","[[3, 3, 1, 3, 3], [3, 1, 3, 3, 1], [3, 3, 3, 1, 1], [3, 3, 3, 3, 3], [1, 3, 3, 3, 3]]","[3, 6, 3, 10, 8]",12,6,4,0.051,0.051,0.0,[],0,extreme,5,5,1621,0,153,153,attentional-mouselab,10,197624,2
mouselab,False,[],"[[4, 1, 7, 7, 6], [6, 4, 6, 2, 5], [4, 3, 3, 5, 5], [3, 2, 5, 7, 4], [8, 1, 7, 4, 6]]","[[3, 3, 3, 1, 3], [3, 3, 3, 3, 3], [3, 3, 3, 3, 3], [3, 1, 3, 3, 3], [1, 3, 1, 1, 1]]","[1, 7, 6, 12, 4]",14,7,3,0.05,0.05,0.0,[],0,greedy,5,5,2190,0,151,151,attentional-mouselab,11,202519,2
mouselab,False,[],"[[4, 4, 3, 4, 5], [6, 5, 5, 6, 5], [4, 5, 4, 9, 6], [2, 1, 6, 3, 5], [6, 6, 4, 5, 6]]","[[3, 1, 3, 3, 3], [3, 3, 3, 3, 3], [3, 3, 3, 1, 3], [1, 1, 1, 3, 3], [3, 1, 3, 3, 3]]","[5, 5, 8, 7, 5]",6,8,1,0.041,0.041,0.0,[],0,extreme,5,5,2583,0,122,122,attentional-mouselab,12,206794,2
mouselab,False,[],"[[5, 2, 4, 2, 6], [7, 6, 7, 5, 6], [4, 5, 6, 4, 4], [5, 2, 5, 5, 5], [6, 7, 10, 9, 6]]","[[3, 1, 3, 1, 3], [3, 3, 1, 3, 3], [3, 3, 3, 3, 3], [1, 3, 3, 3, 3], [3, 3, 1, 1, 3]]","[2, 10, 14, 2, 2]",24,9,2,0.064,0.064,0.0,[],0,extreme,5,5,1632,0,192,192,attentional-mouselab,13,210122,2
mouselab,False,[],"[[6, 3, 3, 7, 7], [5, 5, 4, 4, 5], [6, 6, 6, 5, 0], [6, 3, 7, 5, 6], [9, 4, 5, 6, 3]]","[[3, 1, 3, 3, 3], [3, 1, 1, 3, 3], [3, 3, 1, 3, 1], [3, 3, 3, 3, 3], [1, 3, 3, 3, 3]]","[1, 4, 2, 13, 10]",22,10,2,0.057,0.057,0.0,[],0,extreme,5,5,1367,0,172,172,attentional-mouselab,14,212927,2
mouselab,False,[],"[[8, 3, 3, 5, 5], [2, 8, 4, 6, 7], [3, 7, 5, 4, 2], [7, 4, 5, 3, 5], [6, 6, 5, 7, 7]]","[[1, 3, 3, 3, 3], [1, 1, 3, 3, 3], [3, 3, 3, 3, 1], [3, 3, 3, 3, 3], [3, 3, 1, 1, 3]]","[1, 14, 3, 1, 11]",26,11,0,0.039,0.039,0.0,[],0,extreme,5,5,1463,0,118,118,attentional-mouselab,15,215919,2
mouselab,False,[],"[[7, 7, 4, 4, 3], [3, 8, 4, 4, 6], [7, 5, 5, 6, 2], [4, 9, 7, 5, 8], [4, 5, 5, 4, 5]]","[[3, 3, 3, 3, 1], [3, 3, 3, 3, 1], [3, 3, 3, 3, 3], [3, 1, 1, 3, 1], [3, 3, 1, 3, 3]]","[2, 5, 4, 3, 16]",20,12,4,0.049,0.049,0.0,[],0,greedy,5,5,1581,0,148,148,attentional-mouselab,16,219111,2
mouselab,False,[],"[[6, 4, 5, 6, 4], [6, 3, 4, 5, 5], [6, 6, 7, 3, 6], [5, 5, 6, 2, 5], [2, 5, 5, 6, 5]]","[[1, 3, 3, 3, 3], [3, 1, 3, 3, 3], [3, 3, 3, 3, 3], [3, 3, 3, 1, 3], [1, 3, 1, 3, 1]]","[4, 11, 9, 5, 1]",16,13,0,0.057,0.057,0.0,[],0,extreme,5,5,1461,0,171,171,attentional-mouselab,17,221976,2
mouselab,False,[],"[[7, 4, 7, 4, 3], [2, 2, 9, 5, 6], [6, 1, 5, 6, 6], [6, 6, 3, 9, 4], [8, 3, 3, 5, 7]]","[[3, 3, 3, 1, 3], [1, 1, 1, 3, 3], [3, 3, 3, 3, 3], [3, 3, 1, 3, 3], [3, 3, 3, 3, 1]]","[11, 2, 4, 3, 10]",18,14,2,0.051,0.051,0.0,[],0,random,5,5,1449,0,154,154,attentional-mouselab,18,225160,2
mouselab,False,[],"[[4, 2, 5, 4, 7], [7, 4, 5, 3, 7], [3, 6, 6, 5, 3], [6, 2, 2, 6, 7], [6, 5, 3, 10, 4]]","[[3, 3, 3, 3, 3], [3, 3, 3, 3, 1], [3, 3, 1, 3, 3], [3, 3, 1, 1, 3], [1, 1, 3, 3, 3]]","[6, 5, 9, 6, 4]",6,15,2,0.044,0.044,0.0,[],0,random,5,5,1400,0,133,133,attentional-mouselab,19,228165,2
mouselab,False,[],"[[6, 3, 6, 7, 6], [6, 4, 3, 6, 6], [4, 5, 4, 2, 4], [7, 3, 6, 3, 7], [2, 6, 4, 7, 7]]","[[3, 3, 3, 3, 1], [3, 3, 3, 3, 3], [3, 3, 1, 3, 3], [3, 1, 3, 1, 3], [3, 3, 1, 1, 3]]","[3, 5, 14, 1, 7]",18,16,3,0.044,0.044,0.0,[],0,random,5,5,1332,0,131,131,attentional-mouselab,20,230871,2
mouselab,False,[],"[[4, 4, 5, 4, 8], [7, 8, 4, 4, 4], [5, 6, 7, 5, 3], [7, 6, 3, 6, 3], [4, 4, 8, 7, 5]]","[[3, 1, 1, 3, 3], [3, 3, 1, 1, 3], [1, 3, 3, 3, 3], [1, 3, 3, 3, 3], [3, 3, 3, 3, 3]]","[8, 5, 6, 7, 4]",6,17,2,0.052,0.052,0.0,[],0,random,5,5,1467,0,155,155,attentional-mouselab,21,233838,2
mouselab,False,[],"[[5, 8, 4, 6, 6], [4, 5, 5, 1, 7], [8, 4, 4, 5, 8], [4, 5, 4, 6, 5], [1, 2, 3, 6, 5]]","[[3, 1, 3, 3, 3], [3, 3, 3, 1, 1], [3, 3, 1, 3, 3], [3, 3, 1, 3, 3], [1, 3, 3, 3, 3]]","[1, 10, 6, 3, 10]",16,18,2,0.04,0.04,0.0,[],0,extreme,5,5,1291,0,120,120,attentional-mouselab,22,236520,2
mouselab,False,[],"[[7, 5, 4, 7, 4], [6, 6, 7, 5, 5], [6, 2, 5, 5, 5], [0, 8, 7, 6, 4], [5, 9, 5, 4, 6]]","[[1, 3, 1, 1, 3], [3, 3, 3, 3, 1], [3, 3, 1, 3, 3], [3, 3, 3, 3, 3], [3, 3, 1, 3, 3]]","[15, 5, 3, 4, 3]",18,19,2,0.051,0.051,0.0,[],0,random,5,5,1829,0,153,153,attentional-mouselab,23,239882,2
mouselab,False,[],"[[5, 5, 5, 2, 5], [3, 5, 3, 4, 5], [2, 4, 6, 5, 6], [4, 4, 5, 3, 6], [6, 7, 5, 5, 3]]","[[3, 3, 3, 3, 3], [3, 3, 3, 1, 3], [3, 1, 1, 1, 3], [3, 3, 3, 3, 3], [1, 1, 3, 3, 3]]","[1, 5, 14, 9, 1]",22,20,3,0.041,0.041,0.0,[],0,greedy,5,5,1530,0,124,124,attentional-mouselab,24,242640,2
mouselab,False,[],"[[4, 4, 6, 6, 7], [3, 4, 7, 7, 4], [5, 6, 4, 7, 6], [7, 7, 3, 4, 7], [5, 7, 2, 3, 6]]","[[3, 3, 3, 3, 1], [1, 3, 1, 3, 3], [3, 3, 3, 3, 3], [1, 3, 3, 1, 3], [3, 3, 1, 3, 3]]","[5, 2, 5, 17, 1]",22,21,2,0.039,0.039,0.0,[],0,extreme,5,5,1305,0,117,117,attentional-mouselab,25,245447,2
mouselab,False,[],"[[6, 6, 4, 7, 4], [5, 8, 6, 6, 3], [6, 5, 7, 6, 4], [6, 6, 4, 5, 5], [8, 6, 6, 6, 4]]","[[3, 3, 1, 1, 3], [3, 1, 3, 3, 1], [1, 3, 3, 3, 3], [3, 3, 3, 3, 3], [1, 3, 3, 3, 3]]","[6, 7, 3, 4, 10]",10,22,0,0.064,0.064,0.0,[],0,extreme,5,5,1924,0,193,193,attentional-mouselab,26,248896,2
mouselab,False,[],"[[3, 7, 3, 5, 4], [3, 6, 6, 5, 5], [4, 6, 6, 5, 3], [6, 4, 5, 6, 5], [2, 4, 4, 6, 5]]","[[3, 3, 3, 3, 3], [3, 3, 3, 1, 3], [3, 3, 3, 3, 1], [1, 3, 3, 1, 1], [3, 3, 1, 3, 3]]","[4, 13, 5, 6, 2]",14,23,3,0.053,0.053,0.0,[],0,greedy,5,5,1298,0,158,158,attentional-mouselab,27,251647,2
mouselab,False,[],"[[3, 2, 5, 4, 7], [4, 5, 6, 6, 5], [2, 1, 6, 10, 6], [6, 5, 4, 7, 4], [6, 4, 4, 4, 8]]","[[3, 1, 3, 3, 3], [3, 3, 3, 3, 3], [1, 3, 1, 3, 3], [3, 3, 1, 3, 1], [3, 3, 1, 3, 3]]","[2, 9, 4, 11, 4]",16,24,2,0.049,0.049,0.0,[],0,random,5,5,1683,0,148,148,attentional-mouselab,28,255693,2
mouselab,False,[],"[[5, 4, 4, 3, 7], [5, 6, 3, 5, 3], [7, 6, 5, 2, 1], [2, 4, 5, 7, 2], [3, 5, 5, 2, 4]]","[[3, 3, 3, 3, 1], [3, 3, 1, 3, 3], [1, 3, 1, 3, 3], [3, 3, 3, 1, 3], [3, 3, 3, 3, 1]]","[8, 1, 3, 8, 10]",16,25,2,0.047,0.047,0.0,[],0,greedy,5,5,1188,0,140,140,attentional-mouselab,29,258227,2
mouselab,False,[],"[[5, 9, 4, 6, 5], [4, 4, 3, 3, 5], [7, 5, 5, 4, 9], [5, 5, 5, 5, 2], [4, 4, 6, 4, 4]]","[[3, 1, 3, 1, 3], [3, 3, 1, 3, 3], [1, 3, 3, 3, 1], [3, 3, 3, 3, 3], [3, 3, 3, 1, 3]]","[7, 10, 2, 4, 7]",12,26,3,0.043,0.043,0.0,[],0,greedy,5,5,1267,0,128,128,attentional-mouselab,30,261067,2
mouselab,False,[],"[[5, 5, 6, 6, 8], [7, 6, 7, 9, 3], [9, 3, 7, 5, 5], [5, 3, 5, 4, 5], [4, 4, 3, 5, 6]]","[[3, 3, 1, 3, 1], [1, 3, 3, 1, 3], [1, 3, 3, 1, 3], [3, 3, 3, 3, 3], [3, 3, 3, 3, 3]]","[4, 2, 10, 11, 3]",18,27,3,0.05,0.05,0.0,[],0,extreme,5,5,1184,0,151,151,attentional-mouselab,31,263576,2
mouselab,False,[],"[[4, 6, 6, 1, 4], [5, 6, 6, 4, 7], [5, 7, 4, 5, 5], [2, 2, 5, 5, 5], [6, 7, 3, 5, 3]]","[[3, 3, 1, 3, 3], [3, 1, 3, 3, 3], [1, 3, 3, 3, 1], [1, 3, 3, 3, 3], [3, 3, 3, 3, 1]]","[1, 3, 21, 3, 2]",30,28,0,0.047,0.047,0.0,[],0,random,5,5,2121,0,142,142,attentional-mouselab,32,267057,2
mouselab,False,[],"[[6, 6, 4, 5, 5], [6, 3, 3, 5, 5], [5, 4, 8, 6, 5], [3, 4, 3, 5, 5], [3, 5, 5, 5, 7]]","[[3, 3, 3, 1, 3], [3, 3, 1, 3, 3], [3, 3, 1, 1, 1], [3, 3, 3, 3, 3], [3, 3, 3, 3, 1]]","[7, 4, 7, 10, 2]",12,29,4,0.051,0.051,0.0,[],0,greedy,5,5,1170,0,154,154,attentional-mouselab,33,269793,2
mouselab,False,[0],"[[2, 5, 9, 8, 6], [2, 3, 6, 4, 3], [8, 5, 6, 5, 2], [6, 2, 5, 3, 6], [4, 9, 4, 5, 7]]","[[2, 3, 1, 1, 3], [3, 1, 3, 3, 3], [1, 3, 3, 3, 3], [1, 3, 3, 3, 3], [3, 1, 3, 3, 3]]","[3, 2, 6, 17, 2]",22,30,1,0.034,0.03366666666666667,0.0003333333333333333,[],0,greedy,5,5,8034,1,103,102,attentional-mouselab,34,279311,2
mouselab,False,[17],"[[7, 6, 4, 2, 5], [3, 5, 5, 5, 6], [6, 8, 5, 2, 5], [3, 4, 3, 3, 5], [3, 3, 5, 2, 3]]","[[3, 3, 1, 3, 1], [3, 1, 1, 3, 3], [3, 3, 1, 3, 3], [3, 3, 2, 3, 1], [3, 3, 3, 3, 3]]","[2, 6, 14, 3, 5]",16,31,2,0.047,0.04666666666666667,0.0003333333333333333,[],0,random,5,5,6182,1,142,141,attentional-mouselab,35,287666,2
mouselab,False,[],"[[5, 4, 5, 4, 4], [6, 6, 5, 6, 2], [4, 5, 7, 5, 6], [4, 2, 6, 5, 8], [4, 6, 6, 4, 4]]","[[1, 3, 3, 3, 3], [3, 3, 3, 3, 3], [3, 3, 3, 1, 3], [3, 1, 3, 1, 3], [3, 3, 1, 3, 1]]","[3, 5, 10, 2, 10]",16,32,3,0.047,0.047,0.0,[],0,random,5,5,2197,0,142,142,attentional-mouselab,36,292362,2
mouselab,True,"[0, 6, 5, 6, 6, 20, 20, 20, 20, 7, 18, 14, 10, 22, 22, 22, 4, 4, 4, 24, 24, 24]","[[5, 4, 7, 4, 9], [7, 5, 9, 6, 5], [3, 4, 5, 5, 4], [4, 4, 4, 8, 7], [4, 3, 6, 6, 7]]","[[0, 3, 3, 3, 0], [0, 0, 0, 3, 3], [0, 3, 3, 3, 0], [3, 3, 3, 0, 3], [0, 3, 0, 3, 0]]","[4, 15, 6, 4, 1]",18,1,1,0.045,0.038,0.007,"[0, 5, 6, 20, 7, 18, 14, 10, 22, 4, 24]",11,random,5,5,32348,21,134,113,attentional-mouselab,4,156369,3
mouselab,True,[],"[[5, 6, 3, 4, 6], [8, 7, 6, 6, 7], [5, 5, 7, 7, 5], [2, 3, 6, 3, 5], [3, 4, 5, 4, 5]]","[[3, 3, 3, 3, 3], [3, 3, 3, 1, 3], [3, 3, 3, 3, 1], [1, 3, 3, 3, 3], [1, 1, 3, 3, 1]]","[11, 5, 2, 6, 6]",10,2,1,0.051,0.051,0.0,[],0,random,5,5,4040,0,153,153,attentional-mouselab,5,165444,3
mouselab,False,[],"[[5, 4, 7, 4, 9], [7, 5, 9, 6, 5], [3, 4, 5, 5, 4], [4, 4, 4, 8, 7], [4, 3, 6, 6, 7]]","[[1, 3, 3, 3, 3], [1, 3, 1, 3, 3], [1, 3, 3, 3, 1], [3, 3, 3, 1, 3], [3, 3, 3, 3, 3]]","[10, 5, 1, 6, 8]",12,3,1,0.039,0.039,0.0,[],0,random,5,5,1362,0,117,117,attentional-mouselab,7,174424,3
mouselab,False,"[1, 1, 1, 17, 17, 17, 13, 13, 13, 8, 14, 15, 20, 24, 0, 0, 0, 3, 3, 3, 23, 23, 23]","[[5, 6, 3, 4, 6], [8, 7, 6, 6, 7], [5, 5, 7, 7, 5], [2, 3, 6, 3, 5], [3, 4, 5, 4, 5]]","[[0, 0, 3, 0, 3], [3, 3, 3, 0, 3], [3, 3, 3, 0, 0], [0, 3, 0, 3, 3], [0, 1, 3, 0, 0]]","[4, 3, 10, 9, 4]",14,4,3,0.049,0.04133333333333333,0.007666666666666666,"[1, 17, 13, 8, 14, 15, 20, 24, 0, 3, 23]",11,random,5,5,16217,23,147,124,attentional-mouselab,8,192243,3
mouselab,False,"[10, 10, 10, 10, 21, 21, 21, 22, 20, 24, 9, 4, 3, 0, 0, 0]","[[5, 5, 6, 4, 6], [2, 2, 7, 6, 8], [5, 6, 4, 3, 7], [3, 4, 5, 5, 6], [7, 4, 6, 5, 7]]","[[0, 3, 3, 0, 0], [1, 3, 3, 3, 2], [0, 3, 3, 3, 3], [3, 3, 3, 3, 3], [0, 0, 0, 3, 0]]","[7, 2, 9, 1, 11]",18,5,2,0.054,0.049,0.005,"[10, 21, 22, 20, 24, 4, 3, 0]",8,greedy,5,5,11971,15,163,148,attentional-mouselab,9,205650,3
mouselab,False,[],"[[7, 6, 5, 5, 7], [6, 4, 4, 5, 5], [5, 5, 3, 3, 7], [4, 6, 4, 6, 1], [6, 6, 5, 6, 6]]","[[1, 3, 1, 3, 1], [3, 3, 1, 3, 3], [3, 3, 3, 3, 3], [3, 3, 3, 3, 1], [3, 3, 3, 3, 1]]","[8, 7, 5, 2, 8]",10,6,3,0.05,0.05,0.0,[],0,extreme,5,5,2936,0,150,150,attentional-mouselab,10,210117,3
mouselab,False,[],"[[5, 1, 4, 4, 3], [5, 2, 6, 2, 5], [5, 5, 2, 5, 5], [4, 5, 4, 4, 4], [3, 9, 4, 7, 4]]","[[3, 3, 3, 3, 1], [3, 3, 3, 1, 3], [3, 3, 3, 3, 1], [3, 3, 1, 3, 3], [3, 1, 3, 1, 3]]","[15, 6, 4, 2, 3]",18,7,0,0.047,0.047,0.0,[],0,greedy,5,5,1818,0,142,142,attentional-mouselab,11,213534,3
mouselab,False,[],"[[3, 7, 3, 4, 5], [4, 4, 6, 6, 6], [4, 0, 7, 5, 6], [5, 6, 5, 4, 4], [1, 6, 4, 7, 4]]","[[1, 1, 1, 3, 3], [3, 3, 3, 3, 3], [3, 1, 3, 3, 3], [3, 3, 3, 3, 3], [1, 3, 3, 1, 3]]","[3, 16, 1, 4, 6]",20,8,1,0.048,0.048,0.0,[],0,extreme,5,5,1164,0,145,145,attentional-mouselab,12,216183,3
mouselab,False,[],"[[8, 5, 7, 6, 6], [5, 9, 4, 7, 4], [3, 2, 5, 7, 4], [5, 5, 5, 4, 5], [3, 5, 7, 3, 4]]","[[1, 3, 1, 3, 3], [3, 1, 3, 3, 3], [3, 1, 1, 3, 3], [1, 3, 3, 3, 3], [3, 3, 3, 3, 3]]","[7, 2, 1, 12, 8]",18,9,4,0.049,0.049,0.0,[],0,extreme,5,5,1250,0,146,146,attentional-mouselab,13,220301,3
mouselab,False,"[3, 3, 3, 3]","[[3, 4, 4, 3, 5], [7, 9, 6, 7, 4], [5, 6, 6, 2, 3], [7, 6, 6, 3, 5], [4, 3, 4, 7, 3]]","[[3, 3, 3, 0, 3], [1, 1, 3, 1, 3], [3, 3, 3, 3, 1], [1, 3, 3, 3, 3], [3, 3, 3, 1, 3]]","[9, 12, 6, 1, 2]",18,10,3,0.047,0.046,0.001,[3],1,greedy,5,5,2377,3,140,137,attentional-mouselab,14,223759,3
mouselab,False,"[20, 20, 20, 20, 15, 21, 11, 22, 3, 24, 1, 1, 1, 6, 6, 6, 16, 16, 16]","[[6, 5, 6, 3, 3], [2, 5, 5, 6, 6], [9, 5, 3, 2, 6], [4, 5, 5, 5, 8], [4, 10, 7, 6, 8]]","[[3, 0, 3, 0, 3], [3, 0, 3, 3, 3], [3, 0, 3, 3, 3], [0, 0, 3, 3, 3], [0, 0, 0, 3, 0]]","[4, 15, 3, 2, 6]",18,11,1,0.06,0.054,0.006,"[20, 15, 21, 11, 22, 3, 24, 1, 6, 16]",10,greedy,5,5,12342,18,180,162,attentional-mouselab,15,237340,3
mouselab,False,[],"[[5, 4, 2, 4, 6], [10, 4, 4, 6, 3], [4, 2, 6, 7, 4], [7, 7, 7, 4, 5], [5, 5, 4, 3, 3]]","[[3, 3, 1, 3, 1], [1, 3, 3, 3, 1], [3, 1, 3, 1, 3], [3, 3, 3, 3, 3], [3, 3, 3, 3, 3]]","[6, 6, 2, 10, 6]",8,12,2,0.047,0.047,0.0,[],0,extreme,5,5,1212,0,142,142,attentional-mouselab,16,240554,3
mouselab,False,"[15, 15, 15, 15, 6, 12, 4, 9, 14, 19, 24, 24, 24, 24]","[[5, 6, 7, 6, 6], [3, 10, 4, 7, 7], [5, 4, 5, 3, 6], [6, 5, 7, 6, 8], [5, 4, 7, 7, 7]]","[[3, 3, 3, 3, 0], [3, 0, 3, 3, 0], [3, 3, 0, 3, 0], [0, 3, 3, 3, 0], [3, 3, 3, 3, 0]]","[2, 13, 2, 7, 6]",16,13,4,0.071,0.06699999999999999,0.004,"[15, 6, 12, 4, 9, 14, 19, 24]",8,random,5,5,5520,12,213,201,attentional-mouselab,17,247859,3
mouselab,False,"[4, 19, 18, 8, 8, 8, 6, 6, 6]","[[5, 5, 6, 5, 5], [7, 4, 4, 6, 6], [2, 7, 6, 7, 4], [5, 5, 7, 2, 2], [7, 6, 8, 3, 6]]","[[1, 3, 3, 3, 0], [3, 0, 3, 0, 3], [1, 3, 3, 3, 3], [3, 3, 3, 0, 0], [3, 3, 3, 1, 3]]","[10, 3, 6, 7, 4]",10,14,4,0.043,0.039999999999999994,0.003,"[4, 19, 18, 8, 6]",5,extreme,5,5,5307,9,130,121,attentional-mouselab,18,254137,3
mouselab,False,[],"[[6, 6, 5, 5, 5], [8, 7, 4, 1, 6], [5, 5, 7, 6, 7], [3, 5, 6, 4, 6], [3, 4, 10, 7, 7]]","[[3, 1, 3, 1, 3], [3, 3, 3, 3, 3], [3, 3, 3, 3, 3], [3, 3, 3, 3, 1], [3, 3, 1, 1, 1]]","[7, 13, 4, 1, 5]",16,15,1,0.059,0.059,0.0,[],0,greedy,5,5,1503,0,178,178,attentional-mouselab,19,257832,3
mouselab,False,"[20, 20, 20, 20, 5, 5, 5, 5]","[[5, 8, 5, 7, 3], [5, 4, 7, 5, 6], [6, 6, 9, 2, 3], [4, 6, 6, 3, 5], [4, 5, 5, 5, 4]]","[[3, 1, 1, 3, 3], [0, 1, 1, 3, 3], [3, 3, 3, 1, 3], [3, 1, 3, 3, 3], [0, 3, 3, 3, 3]]","[11, 2, 6, 7, 4]",12,16,0,0.048,0.046,0.002,"[20, 5]",2,random,5,5,2440,6,145,139,attentional-mouselab,20,261314,3
mouselab,False,[],"[[2, 4, 4, 7, 6], [6, 2, 5, 2, 3], [7, 4, 5, 6, 9], [3, 5, 5, 5, 8], [5, 6, 3, 2, 6]]","[[1, 3, 1, 3, 3], [3, 3, 3, 1, 3], [3, 3, 3, 3, 3], [1, 1, 3, 3, 3], [3, 3, 3, 1, 3]]","[5, 6, 2, 13, 4]",14,17,3,0.044,0.044,0.0,[],0,random,5,5,999,0,132,132,attentional-mouselab,21,263535,3
mouselab,False,[],"[[5, 3, 7, 4, 4], [7, 4, 6, 2, 4], [8, 5, 6, 5, 3], [7, 3, 5, 6, 3], [5, 6, 6, 5, 6]]","[[3, 1, 3, 1, 3], [3, 3, 3, 1, 3], [1, 3, 1, 3, 3], [3, 3, 3, 3, 3], [3, 3, 3, 1, 3]]","[6, 3, 5, 4, 12]",12,18,2,0.061,0.061,0.0,[],0,extreme,5,5,1298,0,182,182,attentional-mouselab,22,266198,3
mouselab,False,[],"[[6, 7, 6, 2, 5], [8, 6, 5, 9, 3], [6, 7, 7, 5, 5], [3, 5, 7, 4, 5], [7, 7, 5, 6, 4]]","[[3, 3, 3, 3, 1], [1, 3, 3, 3, 3], [3, 3, 1, 1, 3], [3, 3, 1, 3, 3], [3, 3, 1, 3, 3]]","[2, 2, 4, 13, 9]",20,19,2,0.062,0.062,0.0,[],0,random,5,5,984,0,186,186,attentional-mouselab,23,268176,3
mouselab,False,[],"[[5, 4, 8, 3, 3], [5, 6, 4, 7, 4], [5, 5, 6, 7, 4], [7, 10, 5, 7, 4], [6, 4, 3, 6, 5]]","[[3, 3, 3, 3, 3], [3, 3, 3, 3, 3], [1, 3, 3, 3, 1], [1, 1, 3, 1, 3], [3, 3, 1, 3, 3]]","[1, 10, 13, 3, 3]",22,20,2,0.05,0.05,0.0,[],0,greedy,5,5,1219,0,150,150,attentional-mouselab,24,271973,3
mouselab,False,[],"[[4, 5, 5, 5, 4], [8, 4, 3, 5, 8], [4, 9, 6, 3, 6], [7, 6, 2, 4, 5], [3, 7, 3, 5, 6]]","[[3, 3, 1, 3, 3], [3, 3, 1, 3, 1], [3, 3, 3, 3, 3], [1, 3, 3, 3, 1], [3, 1, 3, 3, 3]]","[4, 2, 8, 4, 12]",16,21,1,0.069,0.069,0.0,[],0,random,5,5,1205,0,208,208,attentional-mouselab,25,274621,3
mouselab,False,[],"[[7, 8, 2, 6, 5], [5, 7, 7, 8, 4], [7, 2, 2, 6, 8], [10, 7, 4, 5, 6], [4, 5, 6, 3, 5]]","[[1, 3, 3, 3, 3], [3, 1, 1, 1, 3], [3, 3, 3, 3, 3], [1, 1, 3, 3, 3], [3, 3, 3, 3, 3]]","[7, 7, 1, 10, 5]",12,22,3,0.056,0.056,0.0,[],0,greedy,5,5,1157,0,169,169,attentional-mouselab,26,276717,3
mouselab,False,[],"[[8, 3, 7, 4, 6], [2, 4, 6, 7, 6], [4, 4, 9, 4, 4], [7, 6, 5, 7, 5], [3, 6, 7, 5, 6]]","[[1, 1, 3, 3, 3], [1, 3, 3, 3, 3], [3, 3, 1, 1, 3], [3, 3, 3, 3, 3], [3, 3, 1, 3, 3]]","[3, 20, 2, 3, 2]",28,23,4,0.058,0.058,0.0,[],0,extreme,5,5,771,0,173,173,attentional-mouselab,27,279687,3
mouselab,False,[],"[[3, 6, 6, 3, 3], [5, 3, 2, 4, 6], [6, 3, 6, 3, 4], [4, 5, 3, 8, 6], [6, 6, 5, 5, 4]]","[[3, 1, 3, 1, 3], [3, 3, 1, 3, 3], [3, 3, 3, 3, 3], [1, 1, 3, 1, 3], [3, 3, 3, 3, 3]]","[2, 2, 22, 2, 2]",32,24,0,0.056,0.056,0.0,[],0,random,5,5,779,0,168,168,attentional-mouselab,28,281641,3
mouselab,False,[],"[[2, 5, 4, 1, 5], [7, 3, 5, 3, 5], [7, 10, 5, 6, 7], [6, 7, 6, 5, 5], [7, 7, 5, 5, 8]]","[[1, 3, 3, 1, 1], [1, 3, 3, 3, 3], [3, 1, 3, 3, 3], [3, 3, 3, 3, 3], [3, 3, 3, 3, 1]]","[1, 2, 8, 17, 2]",26,25,1,0.075,0.075,0.0,[],0,extreme,5,5,1433,0,224,224,attentional-mouselab,29,284666,3
mouselab,False,[],"[[4, 9, 6, 6, 4], [6, 7, 6, 4, 4], [9, 4, 3, 5, 6], [6, 5, 2, 6, 6], [6, 3, 6, 5, 6]]","[[3, 1, 1, 3, 3], [3, 3, 3, 3, 3], [1, 1, 3, 3, 1], [3, 3, 3, 3, 3], [3, 3, 1, 3, 3]]","[8, 4, 9, 8, 1]",14,26,1,0.06,0.06,0.0,[],0,greedy,5,5,614,0,179,179,attentional-mouselab,30,286281,3
mouselab,False,[],"[[4, 6, 8, 5, 6], [8, 7, 5, 6, 4], [4, 8, 5, 3, 7], [3, 5, 5, 4, 7], [6, 4, 6, 4, 6]]","[[3, 3, 3, 3, 1], [3, 1, 3, 3, 3], [3, 3, 3, 3, 3], [1, 3, 3, 3, 1], [1, 3, 3, 3, 1]]","[5, 2, 19, 3, 1]",26,27,2,0.055,0.055,0.0,[],0,random,5,5,1150,0,166,166,attentional-mouselab,31,288960,3
mouselab,False,[],"[[5, 5, 5, 5, 6], [2, 5, 5, 5, 7], [4, 6, 5, 8, 4], [5, 7, 6, 7, 4], [4, 6, 5, 4, 3]]","[[3, 3, 3, 3, 3], [1, 3, 3, 3, 1], [3, 1, 1, 1, 3], [3, 3, 3, 3, 3], [3, 3, 1, 3, 3]]","[6, 1, 2, 3, 18]",24,28,0,0.042,0.042,0.0,[],0,extreme,5,5,1408,0,127,127,attentional-mouselab,32,291552,3
mouselab,False,[],"[[3, 7, 8, 6, 3], [3, 5, 3, 3, 7], [3, 4, 2, 4, 1], [5, 6, 4, 9, 6], [6, 3, 4, 7, 8]]","[[3, 1, 1, 3, 3], [3, 3, 1, 3, 3], [3, 3, 3, 3, 3], [3, 3, 1, 1, 3], [3, 3, 3, 3, 1]]","[7, 2, 3, 6, 12]",14,29,3,0.066,0.066,0.0,[],0,greedy,5,5,1873,0,198,198,attentional-mouselab,33,294473,3
mouselab,False,[],"[[5, 7, 6, 3, 5], [7, 3, 4, 5, 2], [5, 4, 6, 7, 4], [5, 5, 5, 10, 5], [2, 5, 1, 3, 3]]","[[1, 3, 3, 3, 3], [3, 3, 3, 3, 1], [3, 3, 3, 3, 3], [3, 3, 3, 1, 3], [1, 1, 1, 3, 3]]","[1, 6, 13, 6, 4]",14,30,4,0.037,0.037,0.0,[],0,extreme,5,5,1915,0,111,111,attentional-mouselab,34,297302,3
mouselab,False,[],"[[3, 5, 4, 8, 5], [5, 2, 4, 2, 6], [3, 9, 7, 7, 3], [5, 3, 3, 4, 6], [6, 6, 4, 6, 5]]","[[3, 3, 1, 3, 3], [3, 1, 3, 3, 3], [1, 1, 1, 1, 3], [3, 3, 3, 3, 3], [3, 3, 3, 3, 3]]","[11, 1, 8, 7, 3]",16,31,1,0.056,0.056,0.0,[],0,greedy,5,5,992,0,168,168,attentional-mouselab,35,299430,3
mouselab,False,[],"[[5, 2, 4, 7, 4], [3, 3, 6, 3, 6], [4, 6, 7, 6, 6], [4, 2, 5, 9, 7], [0, 2, 3, 5, 3]]","[[3, 3, 1, 3, 3], [1, 3, 3, 3, 3], [3, 3, 3, 3, 3], [1, 3, 1, 3, 1], [3, 1, 3, 3, 3]]","[16, 1, 5, 3, 5]",20,32,0,0.038,0.038,0.0,[],0,random,5,5,1235,0,115,115,attentional-mouselab,36,302951,3
mouselab,True,"[5, 5, 5, 6, 6, 6, 7, 7, 7, 8, 8, 8, 9, 9, 9, 13, 11]","[[3, 8, 7, 6, 5], [4, 5, 4, 5, 4], [10, 3, 9, 6, 6], [5, 5, 7, 3, 4], [3, 5, 2, 4, 5]]","[[3, 1, 3, 1, 3], [0, 0, 0, 0, 0], [1, 0, 1, 0, 3], [3, 3, 3, 3, 3], [3, 3, 3, 3, 3]]","[4, 14, 6, 4, 2]",16,1,3,0.05,0.044333333333333336,0.005666666666666667,"[5, 6, 7, 8, 9, 13, 11]",7,greedy,5,5,37428,17,150,133,attentional-mouselab,4,215600,4
mouselab,True,"[1, 0, 0, 0, 5, 5, 5, 6, 6, 6]","[[4, 5, 3, 4, 5], [5, 4, 5, 10, 7], [4, 7, 5, 4, 7], [6, 3, 5, 2, 8], [5, 4, 3, 2, 8]]","[[0, 0, 3, 3, 3], [0, 0, 3, 1, 3], [3, 3, 1, 3, 3], [3, 3, 3, 1, 1], [3, 3, 3, 3, 1]]","[11, 11, 4, 3, 1]",20,2,0,0.046,0.042666666666666665,0.0033333333333333335,"[1, 0, 5, 6]",4,extreme,5,5,21756,10,138,128,attentional-mouselab,5,240073,4
mouselab,False,"[18, 18, 18, 19, 19, 19, 17, 17, 17]","[[3, 8, 7, 6, 5], [4, 5, 4, 5, 4], [10, 3, 9, 6, 6], [5, 5, 7, 3, 4], [3, 5, 2, 4, 5]]","[[3, 1, 3, 1, 3], [3, 3, 3, 3, 3], [1, 1, 1, 1, 3], [3, 3, 0, 0, 0], [3, 3, 3, 3, 3]]","[1, 6, 4, 13, 6]",14,3,2,0.057,0.054,0.003,"[18, 19, 17]",3,greedy,5,5,14715,9,170,161,attentional-mouselab,7,260368,4
mouselab,False,[24],"[[4, 5, 3, 4, 5], [5, 4, 5, 10, 7], [4, 7, 5, 4, 7], [6, 3, 5, 2, 8], [5, 4, 3, 2, 8]]","[[3, 1, 3, 3, 3], [3, 3, 3, 1, 3], [3, 3, 1, 3, 3], [3, 3, 3, 1, 1], [3, 3, 3, 3, 0]]","[2, 2, 11, 2, 13]",24,4,4,0.074,0.07366666666666666,0.0003333333333333333,[24],1,extreme,5,5,6415,1,221,220,attentional-mouselab,8,269081,4
mouselab,False,"[20, 22, 22, 22, 21, 21, 21, 23, 23, 23, 24, 24, 24, 11, 6]","[[4, 6, 6, 4, 1], [6, 5, 4, 3, 4], [3, 8, 4, 6, 5], [5, 9, 7, 4, 5], [4, 7, 6, 6, 6]]","[[3, 3, 3, 3, 1], [3, 0, 3, 3, 3], [1, 0, 3, 3, 3], [3, 1, 3, 3, 3], [0, 0, 0, 0, 0]]","[1, 4, 2, 3, 20]",28,5,1,0.07,0.065,0.005,"[20, 22, 21, 23, 24, 11, 6]",7,extreme,5,5,17417,15,209,194,attentional-mouselab,9,288998,4
mouselab,False,"[5, 7, 9, 9, 9, 8, 8, 8, 6, 6, 6]","[[2, 8, 2, 6, 3], [5, 3, 5, 4, 6], [4, 5, 5, 2, 7], [2, 2, 5, 3, 6], [5, 8, 7, 5, 3]]","[[3, 3, 3, 3, 3], [0, 0, 0, 0, 0], [3, 3, 1, 1, 3], [3, 3, 3, 3, 1], [3, 3, 3, 1, 3]]","[1, 10, 6, 6, 7]",10,6,4,0.054,0.050333333333333334,0.0036666666666666666,"[5, 7, 9, 8, 6]",5,random,5,5,12293,11,162,151,attentional-mouselab,10,303363,4
mouselab,False,"[20, 20, 20, 21, 21, 21, 22, 22, 22, 23, 23, 23]","[[5, 3, 7, 8, 7], [5, 5, 6, 6, 1], [3, 5, 4, 1, 4], [5, 6, 1, 3, 3], [5, 4, 5, 7, 5]]","[[1, 3, 1, 1, 1], [3, 3, 3, 3, 1], [3, 3, 3, 3, 3], [3, 3, 3, 3, 3], [0, 0, 0, 0, 1]]","[5, 5, 4, 6, 10]",8,7,3,0.054,0.05,0.004,"[20, 21, 22, 23]",4,greedy,5,5,10664,12,162,150,attentional-mouselab,11,316230,4
mouselab,False,"[0, 2, 1, 1, 1, 3, 3, 3, 4, 4, 4]","[[3, 4, 1, 4, 6], [8, 4, 8, 7, 4], [3, 8, 2, 7, 7], [5, 5, 4, 3, 9], [7, 5, 6, 6, 6]]","[[0, 0, 0, 0, 0], [3, 1, 3, 3, 3], [3, 3, 3, 1, 3], [1, 3, 3, 1, 3], [3, 3, 3, 3, 3]]","[16, 4, 1, 3, 6]",20,8,4,0.061,0.05733333333333333,0.0036666666666666666,"[0, 2, 1, 3, 4]",5,random,5,5,9781,11,182,171,attentional-mouselab,12,331206,4
mouselab,False,"[13, 19, 18, 18, 18, 14, 14, 14]","[[5, 5, 10, 7, 8], [4, 3, 4, 4, 7], [6, 6, 6, 2, 5], [5, 5, 5, 5, 5], [7, 6, 5, 7, 5]]","[[3, 3, 1, 1, 1], [3, 3, 3, 3, 3], [3, 3, 3, 0, 0], [3, 3, 3, 0, 0], [3, 1, 3, 3, 3]]","[5, 1, 12, 11, 1]",22,9,4,0.056,0.05333333333333334,0.0026666666666666666,"[13, 19, 18, 14]",4,extreme,5,5,13650,8,167,159,attentional-mouselab,13,346614,4
mouselab,False,"[11, 12, 12, 12, 13, 13, 13, 14, 14, 14]","[[7, 0, 5, 3, 3], [5, 4, 7, 4, 5], [4, 5, 6, 6, 7], [6, 5, 3, 3, 3], [7, 7, 4, 7, 5]]","[[1, 3, 3, 3, 3], [1, 3, 3, 1, 3], [3, 0, 0, 0, 0], [1, 3, 3, 3, 1], [3, 3, 3, 3, 3]]","[8, 3, 11, 3, 5]",14,10,4,0.05,0.04666666666666667,0.0033333333333333335,"[11, 12, 13, 14]",4,random,5,5,9323,10,150,140,attentional-mouselab,14,357771,4
mouselab,False,"[20, 20, 20, 21, 21, 21, 22, 22, 22, 23, 23, 23]","[[4, 7, 4, 6, 6], [4, 6, 6, 6, 7], [4, 2, 8, 6, 6], [4, 4, 5, 7, 5], [6, 4, 4, 7, 3]]","[[1, 1, 1, 3, 3], [3, 3, 3, 1, 1], [3, 3, 1, 3, 3], [3, 3, 3, 3, 3], [0, 0, 0, 0, 3]]","[6, 2, 9, 1, 12]",18,11,3,0.064,0.06,0.004,"[20, 21, 22, 23]",4,greedy,5,5,10468,12,193,181,attentional-mouselab,15,369853,4
mouselab,False,"[13, 10, 10, 10, 11, 11, 11, 12, 12, 12, 14, 14, 14]","[[5, 4, 3, 10, 1], [5, 5, 8, 7, 4], [5, 5, 4, 1, 6], [3, 6, 5, 5, 4], [8, 2, 4, 6, 7]]","[[3, 3, 3, 1, 1], [3, 3, 1, 3, 3], [0, 0, 0, 0, 0], [3, 1, 1, 3, 3], [3, 3, 3, 3, 3]]","[3, 8, 14, 1, 4]",20,12,4,0.05,0.04566666666666667,0.004333333333333333,"[13, 10, 11, 12, 14]",5,extreme,5,5,9587,13,151,138,attentional-mouselab,16,381010,4
mouselab,False,[16],"[[7, 4, 4, 6, 8], [4, 5, 5, 5, 5], [2, 5, 4, 5, 8], [5, 6, 5, 4, 2], [4, 6, 6, 3, 4]]","[[3, 3, 3, 3, 1], [3, 3, 3, 3, 3], [1, 1, 3, 3, 1], [3, 0, 3, 3, 3], [3, 1, 3, 3, 3]]","[8, 6, 6, 9, 1]",10,13,1,0.051,0.050666666666666665,0.0003333333333333333,[16],1,extreme,5,5,7364,1,152,151,attentional-mouselab,17,390124,4
mouselab,False,"[17, 15]","[[6, 3, 7, 6, 6], [7, 3, 4, 6, 5], [3, 4, 7, 5, 5], [7, 3, 6, 2, 4], [5, 8, 8, 4, 5]]","[[1, 3, 3, 3, 3], [3, 3, 3, 1, 3], [1, 3, 3, 3, 3], [0, 3, 0, 3, 3], [3, 3, 1, 3, 3]]","[7, 2, 5, 13, 3]",16,14,0,0.059,0.05833333333333333,0.0006666666666666666,"[17, 15]",2,random,5,5,4378,2,177,175,attentional-mouselab,18,396829,4
mouselab,False,"[3, 2, 2, 2, 0, 0, 0, 1, 1, 1, 4, 4, 4]","[[5, 1, 4, 5, 6], [4, 4, 5, 6, 7], [6, 0, 6, 4, 5], [4, 5, 8, 6, 5], [5, 7, 8, 4, 4]]","[[0, 0, 0, 0, 0], [3, 1, 3, 3, 1], [3, 3, 3, 3, 3], [3, 3, 1, 3, 3], [1, 1, 3, 3, 3]]","[10, 4, 9, 4, 3]",14,15,4,0.055,0.050666666666666665,0.004333333333333333,"[3, 2, 0, 1, 4]",5,random,5,5,10477,13,165,152,attentional-mouselab,19,408876,4
mouselab,False,[6],"[[4, 6, 6, 1, 4], [5, 6, 6, 4, 7], [5, 7, 4, 5, 5], [2, 2, 5, 5, 5], [6, 7, 3, 5, 3]]","[[3, 3, 3, 1, 3], [3, 0, 3, 3, 3], [1, 3, 3, 3, 1], [1, 1, 3, 3, 3], [3, 3, 3, 3, 3]]","[5, 12, 6, 5, 2]",12,16,1,0.056,0.05566666666666667,0.0003333333333333333,[6],1,extreme,5,5,4255,1,168,167,attentional-mouselab,20,414778,4
mouselab,False,"[11, 10, 10, 10, 12, 12, 12, 14, 14, 14, 13, 13, 13]","[[7, 6, 4, 1, 2], [4, 4, 5, 4, 5], [6, 2, 5, 3, 6], [4, 5, 6, 5, 6], [7, 6, 4, 6, 5]]","[[1, 3, 3, 1, 1], [3, 3, 1, 3, 3], [0, 0, 0, 0, 0], [3, 3, 3, 3, 3], [3, 3, 3, 1, 3]]","[3, 4, 15, 4, 4]",18,17,4,0.053,0.048666666666666664,0.004333333333333333,"[11, 10, 12, 14, 13]",5,extreme,5,5,9658,13,160,147,attentional-mouselab,21,425876,4
mouselab,False,"[20, 20, 20, 21, 21, 21, 23, 23, 23, 22, 22, 22, 24, 24, 24, 2, 7]","[[4, 5, 6, 6, 5], [4, 0, 2, 4, 6], [3, 4, 5, 5, 6], [5, 6, 8, 5, 5], [2, 5, 6, 6, 4]]","[[3, 1, 0, 3, 3], [1, 3, 0, 3, 3], [1, 3, 3, 3, 3], [3, 3, 3, 1, 3], [0, 0, 0, 0, 0]]","[4, 5, 1, 6, 14]",16,18,3,0.054,0.04833333333333333,0.005666666666666667,"[20, 21, 23, 22, 24, 2, 7]",7,random,5,5,16548,17,163,146,attentional-mouselab,22,444632,4
mouselab,False,"[1, 3]","[[7, 6, 8, 8, 6], [6, 1, 5, 5, 3], [6, 6, 7, 4, 6], [10, 6, 1, 3, 5], [8, 7, 2, 8, 4]]","[[3, 0, 3, 0, 3], [3, 3, 3, 1, 1], [3, 3, 3, 3, 3], [1, 3, 3, 3, 3], [3, 3, 3, 1, 3]]","[15, 7, 3, 4, 1]",20,19,3,0.062,0.06133333333333333,0.0006666666666666666,"[1, 3]",2,random,5,5,7344,2,187,185,attentional-mouselab,23,454646,4
mouselab,False,"[1, 0, 4, 4, 4, 3, 3, 3, 2, 2, 2]","[[2, 4, 6, 7, 2], [6, 4, 5, 6, 2], [4, 5, 3, 6, 3], [5, 4, 8, 6, 3], [5, 6, 4, 8, 3]]","[[0, 0, 0, 0, 0], [3, 1, 3, 1, 3], [3, 3, 3, 3, 3], [3, 3, 1, 3, 3], [3, 3, 3, 1, 3]]","[17, 2, 2, 4, 5]",22,20,3,0.069,0.06533333333333334,0.0036666666666666666,"[1, 0, 4, 3, 2]",5,random,5,5,9359,11,207,196,attentional-mouselab,24,468085,4
mouselab,False,"[7, 7, 7]","[[6, 5, 2, 4, 4], [4, 7, 8, 4, 6], [5, 6, 5, 3, 8], [6, 6, 5, 4, 5], [8, 5, 4, 7, 8]]","[[3, 3, 1, 3, 3], [3, 3, 0, 3, 3], [1, 3, 3, 1, 3], [3, 3, 3, 3, 3], [1, 3, 3, 1, 1]]","[1, 10, 7, 8, 4]",14,21,2,0.058,0.057,0.001,[7],1,greedy,5,5,7482,3,173,170,attentional-mouselab,25,477880,4
mouselab,False,"[6, 5]","[[2, 5, 4, 3, 3], [9, 4, 7, 5, 8], [5, 5, 4, 5, 7], [1, 6, 2, 5, 1], [6, 8, 9, 3, 7]]","[[3, 3, 3, 3, 3], [0, 0, 3, 3, 1], [3, 3, 3, 1, 3], [3, 3, 3, 3, 1], [3, 3, 1, 3, 3]]","[4, 13, 7, 5, 1]",16,22,0,0.057,0.05633333333333333,0.0006666666666666666,"[6, 5]",2,greedy,5,5,6039,2,171,169,attentional-mouselab,26,486360,4
mouselab,False,[11],"[[7, 6, 7, 6, 5], [7, 5, 6, 6, 4], [9, 8, 3, 6, 4], [6, 5, 5, 4, 3], [2, 5, 2, 5, 3]]","[[1, 3, 1, 1, 3], [3, 3, 3, 3, 3], [1, 0, 3, 3, 3], [1, 3, 3, 3, 3], [3, 3, 3, 3, 3]]","[7, 4, 8, 7, 4]",8,23,1,0.06,0.059666666666666666,0.0003333333333333333,[11],1,greedy,5,5,6398,1,181,180,attentional-mouselab,27,494420,4
mouselab,False,[2],"[[5, 7, 7, 6, 6], [7, 6, 5, 6, 4], [7, 8, 5, 8, 6], [2, 4, 5, 5, 3], [7, 1, 6, 7, 5]]","[[3, 3, 0, 3, 3], [3, 3, 3, 1, 3], [1, 1, 3, 1, 3], [3, 3, 3, 1, 3], [3, 3, 3, 3, 3]]","[15, 2, 5, 4, 4]",18,24,2,0.061,0.06066666666666667,0.0003333333333333333,[2],1,greedy,5,5,4204,1,184,183,attentional-mouselab,28,501001,4
mouselab,False,"[6, 7]","[[6, 6, 5, 7, 5], [4, 8, 5, 4, 3], [3, 4, 5, 4, 6], [6, 5, 3, 5, 6], [4, 3, 3, 7, 3]]","[[1, 3, 3, 1, 3], [3, 0, 0, 3, 3], [3, 3, 3, 1, 3], [3, 3, 3, 3, 3], [3, 3, 1, 3, 3]]","[3, 16, 3, 7, 1]",22,25,1,0.065,0.06433333333333334,0.0006666666666666666,"[6, 7]",2,random,5,5,3866,2,196,194,attentional-mouselab,29,506330,4
mouselab,False,[],"[[3, 8, 3, 5, 3], [6, 7, 4, 4, 5], [2, 3, 5, 4, 2], [3, 4, 8, 10, 7], [5, 5, 2, 7, 4]]","[[3, 1, 3, 3, 3], [3, 3, 3, 3, 1], [1, 3, 3, 3, 1], [3, 3, 1, 1, 3], [3, 3, 3, 3, 3]]","[5, 4, 4, 8, 9]",10,26,3,0.067,0.067,0.0,[],0,extreme,5,5,6458,0,200,200,attentional-mouselab,30,514822,4
mouselab,False,"[16, 17, 18]","[[3, 6, 6, 3, 3], [7, 7, 3, 8, 4], [5, 3, 5, 5, 4], [4, 7, 5, 4, 7], [6, 5, 3, 7, 5]]","[[3, 3, 3, 1, 3], [3, 3, 3, 3, 1], [3, 3, 3, 3, 3], [3, 0, 0, 0, 3], [3, 3, 3, 3, 1]]","[6, 1, 6, 15, 2]",18,27,1,0.059,0.057999999999999996,0.001,"[16, 17, 18]",3,random,5,5,4664,3,176,173,attentional-mouselab,31,521455,4
mouselab,False,"[21, 24, 23, 23, 23, 22, 22, 22, 20, 20, 20]","[[7, 6, 5, 5, 7], [6, 4, 4, 5, 5], [5, 5, 3, 3, 7], [4, 6, 4, 6, 1], [6, 6, 5, 6, 6]]","[[1, 3, 1, 3, 1], [3, 3, 1, 3, 3], [3, 3, 3, 3, 3], [3, 3, 3, 3, 3], [0, 0, 0, 0, 0]]","[5, 6, 5, 2, 12]",12,28,1,0.054,0.050333333333333334,0.0036666666666666666,"[21, 24, 23, 22, 20]",5,greedy,5,5,10573,11,163,152,attentional-mouselab,32,533665,4
mouselab,False,"[2, 1, 0, 0, 0, 4, 4, 4, 3, 3, 3]","[[5, 3, 5, 4, 4], [5, 5, 7, 6, 5], [5, 7, 7, 4, 4], [4, 0, 5, 6, 2], [6, 7, 3, 6, 6]]","[[0, 0, 0, 0, 0], [3, 3, 3, 1, 3], [3, 3, 3, 3, 3], [3, 1, 3, 1, 1], [3, 3, 3, 3, 3]]","[17, 2, 7, 2, 2]",24,29,2,0.055,0.051333333333333335,0.0036666666666666666,"[2, 1, 0, 4, 3]",5,extreme,5,5,9923,11,164,153,attentional-mouselab,33,545542,4
mouselab,False,"[24, 21]","[[2, 5, 6, 7, 7], [4, 4, 7, 4, 7], [6, 5, 6, 5, 5], [3, 6, 1, 3, 5], [5, 8, 5, 5, 5]]","[[3, 3, 3, 1, 1], [1, 3, 3, 3, 3], [3, 3, 3, 3, 3], [3, 3, 3, 1, 3], [3, 0, 3, 3, 0]]","[6, 5, 9, 2, 8]",10,30,1,0.057,0.05633333333333333,0.0006666666666666666,"[24, 21]",2,greedy,5,5,11098,2,171,169,attentional-mouselab,34,561171,4
mouselab,False,[6],"[[4, 6, 5, 5, 2], [4, 7, 5, 8, 1], [3, 5, 7, 7, 8], [8, 6, 6, 8, 4], [1, 5, 5, 5, 5]]","[[3, 3, 3, 3, 3], [3, 0, 3, 3, 3], [3, 3, 3, 3, 1], [1, 1, 1, 1, 3], [3, 3, 3, 3, 3]]","[1, 19, 6, 1, 3]",26,31,1,0.063,0.06266666666666666,0.0003333333333333333,[6],1,greedy,5,5,6237,1,190,189,attentional-mouselab,35,570800,4
mouselab,False,"[8, 22, 21, 20, 7, 7, 7]","[[3, 4, 6, 4, 7], [5, 4, 4, 2, 7], [8, 5, 7, 3, 4], [4, 6, 3, 6, 7], [2, 2, 6, 6, 8]]","[[3, 3, 3, 3, 1], [3, 3, 0, 0, 3], [1, 3, 3, 3, 3], [3, 3, 3, 3, 3], [0, 0, 0, 3, 3]]","[4, 9, 4, 5, 8]",10,32,2,0.05,0.04766666666666667,0.0023333333333333335,"[8, 22, 21, 20, 7]",5,extreme,5,5,12789,7,151,144,attentional-mouselab,36,585208,4
mouselab,True,"[0, 1, 7, 9, 23, 12, 20, 0, 11, 15, 17, 22, 21, 19, 24, 18, 13, 8, 3, 4, 14, 2, 6, 16, 10, 5, 0, 5, 5, 10, 10, 15, 15, 6, 6, 11, 11, 16, 16, 21, 21, 22, 22, 17, 17, 2, 2, 3, 3, 8, 8, 13, 13, 18, 18, 4, 4, 14, 14, 19, 19, 24, 24]","[[5, 7, 3, 6, 3], [5, 7, 5, 2, 4], [4, 3, 7, 4, 5], [5, 5, 5, 2, 5], [7, 5, 3, 6, 5]]","[[0, 0, 0, 0, 0], [0, 0, 0, 0, 0], [0, 0, 0, 0, 0], [0, 0, 0, 0, 0], [0, 0, 0, 0, 0]]","[12, 8, 5, 3, 2]",16,1,3,0.042,0.021,0.021,"[1, 7, 9, 23, 12, 20, 0, 5, 10, 15, 6, 11, 16, 21, 22, 17, 2, 3, 8, 13, 18, 4, 14, 19, 24]",25,greedy,5,5,89393,63,126,63,attentional-mouselab,4,270447,5
mouselab,True,[],"[[3, 2, 4, 2, 5], [8, 5, 5, 3, 5], [5, 4, 5, 9, 2], [7, 6, 2, 5, 4], [6, 4, 6, 6, 3]]","[[3, 3, 3, 3, 3], [1, 1, 3, 3, 3], [1, 3, 1, 3, 3], [3, 3, 3, 3, 3], [1, 3, 1, 3, 3]]","[1, 1, 8, 1, 19]",30,2,0,0.057,0.057,0.0,[],0,random,5,5,2739,0,172,172,attentional-mouselab,5,281817,5
mouselab,False,"[1, 7]","[[5, 7, 3, 6, 3], [5, 7, 5, 2, 4], [4, 3, 7, 4, 5], [5, 5, 5, 2, 5], [7, 5, 3, 6, 5]]","[[3, 0, 3, 3, 3], [3, 3, 0, 3, 1], [3, 3, 1, 3, 3], [3, 3, 3, 3, 3], [1, 3, 3, 1, 3]]","[6, 5, 3, 6, 10]",8,3,1,0.055,0.05433333333333333,0.0006666666666666666,"[1, 7]",2,greedy,5,5,8104,2,166,164,attentional-mouselab,7,301308,5
mouselab,False,[10],"[[3, 2, 4, 2, 5], [8, 5, 5, 3, 5], [5, 4, 5, 9, 2], [7, 6, 2, 5, 4], [6, 4, 6, 6, 3]]","[[3, 3, 3, 3, 3], [1, 1, 3, 3, 3], [0, 3, 1, 3, 3], [3, 3, 3, 3, 3], [1, 3, 1, 3, 3]]","[13, 4, 8, 4, 1]",18,4,0,0.048,0.04766666666666667,0.0003333333333333333,[10],1,random,5,5,5467,1,145,144,attentional-mouselab,8,310869,5
mouselab,False,"[13, 23]","[[2, 5, 7, 6, 6], [6, 4, 4, 3, 7], [5, 5, 8, 3, 6], [4, 3, 4, 5, 5], [5, 4, 5, 7, 1]]","[[1, 3, 3, 3, 3], [3, 3, 3, 3, 3], [1, 3, 1, 2, 3], [3, 3, 3, 3, 1], [3, 3, 3, 0, 1]]","[15, 2, 7, 2, 4]",20,5,3,0.052,0.05133333333333333,0.0006666666666666666,[23],1,extreme,5,5,6105,2,155,153,attentional-mouselab,9,320119,5
mouselab,False,[24],"[[5, 7, 5, 6, 5], [8, 3, 3, 5, 4], [8, 7, 5, 6, 7], [8, 6, 5, 6, 6], [3, 4, 5, 2, 4]]","[[3, 3, 3, 3, 1], [3, 3, 3, 3, 3], [3, 3, 3, 3, 3], [3, 1, 3, 3, 1], [3, 1, 1, 3, 0]]","[1, 2, 6, 5, 16]",20,6,4,0.05,0.04966666666666667,0.0003333333333333333,[24],1,random,5,5,5567,1,149,148,attentional-mouselab,10,328476,5
mouselab,False,[],"[[7, 7, 3, 4, 2], [4, 5, 6, 7, 5], [6, 5, 7, 4, 5], [6, 3, 4, 6, 4], [3, 5, 4, 4, 5]]","[[3, 3, 3, 3, 3], [3, 3, 1, 3, 1], [3, 1, 3, 3, 3], [3, 1, 3, 1, 3], [3, 3, 3, 3, 1]]","[10, 5, 2, 2, 11]",18,7,0,0.049,0.049,0.0,[],0,random,5,5,3059,0,147,147,attentional-mouselab,11,334618,5
mouselab,False,[22],"[[4, 3, 5, 5, 6], [4, 3, 5, 4, 6], [4, 3, 4, 5, 3], [2, 5, 3, 5, 3], [7, 5, 5, 6, 4]]","[[3, 3, 3, 3, 3], [3, 1, 3, 3, 1], [3, 1, 3, 3, 3], [3, 3, 3, 3, 1], [1, 3, 2, 1, 3]]","[13, 3, 6, 5, 3]",14,8,2,0.045,0.04466666666666667,0.0003333333333333333,[],0,greedy,5,5,3403,1,134,133,attentional-mouselab,12,340305,5
mouselab,False,[],"[[2, 3, 4, 3, 6], [6, 6, 3, 5, 9], [5, 7, 6, 6, 1], [5, 4, 4, 6, 5], [4, 6, 4, 5, 5]]","[[1, 3, 3, 3, 3], [3, 3, 1, 3, 1], [3, 3, 3, 1, 1], [3, 3, 3, 3, 3], [3, 3, 1, 3, 3]]","[8, 6, 9, 4, 3]",10,9,4,0.049,0.049,0.0,[],0,extreme,5,5,2940,0,146,146,attentional-mouselab,13,345711,5
mouselab,False,[],"[[5, 8, 5, 7, 3], [5, 4, 7, 5, 6], [6, 6, 9, 2, 3], [4, 6, 6, 3, 5], [4, 5, 5, 5, 4]]","[[3, 1, 1, 3, 3], [3, 1, 1, 3, 3], [3, 3, 3, 1, 3], [3, 1, 3, 3, 3], [3, 3, 3, 3, 3]]","[15, 3, 2, 9, 1]",24,10,1,0.068,0.068,0.0,[],0,random,5,5,2858,0,203,203,attentional-mouselab,14,351659,5
mouselab,False,"[11, 7]","[[5, 4, 5, 7, 4], [5, 6, 4, 9, 7], [7, 1, 2, 5, 6], [3, 4, 2, 5, 4], [3, 4, 6, 3, 3]]","[[3, 3, 3, 3, 3], [3, 3, 0, 1, 1], [3, 0, 3, 3, 3], [3, 3, 3, 3, 3], [3, 3, 3, 1, 1]]","[3, 10, 11, 4, 2]",18,11,2,0.032,0.03133333333333333,0.0006666666666666666,"[11, 7]",2,greedy,5,5,4059,2,97,95,attentional-mouselab,15,356867,5
mouselab,False,[23],"[[3, 8, 4, 7, 4], [3, 6, 3, 7, 2], [5, 4, 5, 3, 7], [5, 8, 4, 3, 6], [4, 0, 5, 4, 5]]","[[3, 3, 3, 1, 3], [3, 3, 3, 1, 3], [1, 3, 3, 3, 3], [3, 3, 1, 3, 3], [3, 1, 3, 0, 3]]","[4, 3, 8, 8, 7]",10,12,3,0.042,0.04166666666666667,0.0003333333333333333,[23],1,random,5,5,3918,1,125,124,attentional-mouselab,16,361906,5
mouselab,False,"[0, 15]","[[7, 4, 5, 4, 7], [7, 3, 4, 5, 4], [6, 4, 7, 6, 4], [2, 9, 3, 0, 5], [3, 3, 7, 2, 7]]","[[0, 3, 3, 3, 1], [3, 3, 3, 3, 3], [3, 3, 1, 3, 1], [0, 3, 3, 3, 3], [3, 1, 3, 3, 3]]","[8, 14, 2, 2, 4]",20,13,0,0.061,0.06033333333333333,0.0006666666666666666,"[0, 15]",2,greedy,5,5,3460,2,182,180,attentional-mouselab,17,367073,5
mouselab,False,"[21, 1]","[[8, 9, 4, 2, 5], [6, 6, 6, 5, 5], [6, 6, 5, 5, 6], [4, 7, 5, 4, 4], [8, 4, 6, 5, 9]]","[[1, 0, 3, 3, 1], [3, 3, 3, 3, 3], [3, 1, 3, 3, 3], [3, 1, 3, 3, 3], [3, 2, 3, 3, 1]]","[4, 4, 8, 2, 12]",16,14,1,0.057,0.05633333333333333,0.0006666666666666666,[1],1,extreme,5,5,3732,2,170,168,attentional-mouselab,18,372441,5
mouselab,False,[23],"[[1, 4, 7, 3, 4], [8, 6, 4, 5, 4], [6, 5, 7, 4, 4], [1, 2, 6, 6, 2], [3, 3, 6, 9, 4]]","[[3, 3, 3, 3, 3], [1, 1, 3, 1, 3], [3, 3, 1, 3, 3], [3, 3, 3, 3, 3], [3, 3, 1, 0, 3]]","[1, 7, 8, 7, 7]",10,15,3,0.058,0.05766666666666667,0.0003333333333333333,[23],1,greedy,5,5,3005,1,175,174,attentional-mouselab,19,376727,5
mouselab,False,"[11, 16]","[[6, 4, 5, 4, 3], [3, 5, 5, 3, 5], [4, 5, 4, 5, 3], [4, 6, 2, 6, 8], [4, 6, 6, 4, 5]]","[[3, 3, 3, 3, 3], [3, 3, 3, 3, 3], [3, 2, 3, 3, 3], [1, 0, 3, 3, 1], [1, 1, 1, 3, 3]]","[7, 13, 2, 4, 4]",16,16,1,0.05,0.04933333333333333,0.0006666666666666666,[16],1,greedy,5,5,4330,2,151,149,attentional-mouselab,20,382797,5
mouselab,False,[20],"[[7, 6, 4, 9, 7], [5, 5, 5, 1, 3], [7, 7, 2, 2, 5], [2, 6, 5, 4, 5], [2, 8, 5, 4, 4]]","[[3, 3, 3, 3, 3], [3, 1, 1, 3, 1], [3, 3, 1, 3, 3], [3, 3, 3, 3, 3], [0, 3, 3, 3, 1]]","[13, 1, 5, 5, 6]",14,17,0,0.051,0.050666666666666665,0.0003333333333333333,[20],1,random,5,5,2823,1,153,152,attentional-mouselab,21,387259,5
mouselab,False,[19],"[[4, 3, 7, 5, 5], [6, 7, 2, 8, 6], [10, 4, 5, 4, 7], [3, 7, 4, 7, 8], [5, 7, 4, 5, 2]]","[[3, 1, 3, 3, 1], [3, 3, 3, 3, 3], [3, 3, 3, 3, 3], [3, 1, 3, 3, 0], [1, 3, 3, 3, 1]]","[7, 5, 3, 3, 12]",14,18,4,0.045,0.04466666666666667,0.0003333333333333333,[19],1,random,5,5,2910,1,134,133,attentional-mouselab,22,391726,5
mouselab,False,[13],"[[4, 10, 0, 8, 6], [5, 9, 7, 5, 5], [10, 4, 5, 8, 5], [7, 4, 5, 3, 3], [8, 6, 8, 5, 7]]","[[3, 3, 1, 1, 3], [1, 1, 3, 3, 3], [3, 3, 3, 0, 3], [3, 3, 3, 3, 3], [3, 3, 3, 1, 3]]","[8, 13, 2, 5, 2]",18,19,3,0.057,0.05666666666666667,0.0003333333333333333,[13],1,random,5,5,2778,1,170,169,attentional-mouselab,23,395695,5
mouselab,False,[7],"[[7, 4, 3, 6, 5], [6, 6, 4, 7, 7], [5, 4, 7, 5, 8], [2, 7, 0, 7, 7], [3, 8, 5, 4, 6]]","[[1, 3, 3, 1, 3], [1, 3, 0, 3, 3], [1, 3, 3, 3, 3], [3, 3, 3, 3, 3], [3, 3, 3, 3, 1]]","[13, 3, 11, 2, 1]",24,20,2,0.044,0.043666666666666666,0.0003333333333333333,[7],1,random,5,5,2343,1,133,132,attentional-mouselab,24,399549,5
mouselab,False,"[20, 6, 7]","[[4, 6, 4, 5, 4], [4, 2, 10, 5, 3], [6, 5, 4, 6, 6], [6, 3, 5, 5, 3], [2, 8, 3, 5, 5]]","[[3, 3, 1, 3, 3], [3, 0, 0, 3, 1], [3, 3, 3, 3, 3], [3, 3, 3, 3, 3], [0, 1, 3, 3, 3]]","[6, 10, 4, 4, 6]",8,21,2,0.059,0.057999999999999996,0.001,"[20, 6, 7]",3,extreme,5,5,4689,3,178,175,attentional-mouselab,25,405988,5
mouselab,False,"[3, 23, 4, 5]","[[3, 4, 6, 5, 2], [9, 6, 6, 5, 5], [8, 5, 4, 6, 4], [6, 6, 6, 4, 4], [6, 6, 6, 3, 5]]","[[1, 3, 3, 0, 0], [0, 3, 3, 3, 3], [1, 3, 3, 3, 3], [3, 3, 3, 3, 3], [3, 3, 3, 0, 3]]","[6, 4, 4, 8, 8]",8,22,0,0.061,0.059666666666666666,0.0013333333333333333,"[3, 23, 4, 5]",4,extreme,5,5,6451,4,182,178,attentional-mouselab,26,414069,5
mouselab,False,[5],"[[5, 3, 3, 5, 4], [6, 4, 7, 3, 5], [5, 7, 2, 5, 3], [6, 5, 6, 4, 1], [4, 4, 3, 4, 6]]","[[3, 3, 3, 1, 3], [0, 3, 1, 3, 1], [3, 1, 3, 3, 3], [3, 3, 3, 1, 3], [3, 3, 3, 3, 3]]","[15, 3, 2, 8, 2]",22,23,0,0.053,0.05266666666666667,0.0003333333333333333,[5],1,greedy,5,5,2281,1,159,158,attentional-mouselab,27,417893,5
mouselab,False,[7],"[[3, 5, 6, 5, 5], [4, 4, 7, 6, 7], [6, 8, 6, 3, 5], [5, 2, 7, 3, 8], [5, 7, 5, 2, 4]]","[[3, 3, 3, 3, 3], [3, 1, 0, 3, 1], [1, 1, 3, 3, 3], [3, 3, 3, 3, 3], [3, 3, 3, 1, 3]]","[2, 2, 19, 2, 5]",26,24,2,0.06,0.059666666666666666,0.0003333333333333333,[7],1,greedy,5,5,2643,1,179,178,attentional-mouselab,28,421634,5
mouselab,False,[3],"[[5, 4, 4, 7, 5], [6, 4, 1, 4, 5], [6, 5, 5, 6, 6], [4, 3, 4, 5, 6], [8, 5, 5, 4, 5]]","[[3, 3, 3, 0, 1], [3, 1, 3, 3, 1], [3, 3, 3, 3, 1], [3, 3, 3, 3, 3], [1, 3, 3, 3, 3]]","[2, 12, 4, 7, 5]",14,25,3,0.047,0.04666666666666667,0.0003333333333333333,[3],1,greedy,5,5,2563,1,141,140,attentional-mouselab,29,425357,5
mouselab,False,[24],"[[5, 5, 2, 4, 5], [5, 5, 5, 5, 4], [7, 5, 3, 7, 4], [6, 6, 6, 4, 5], [5, 8, 3, 6, 7]]","[[3, 3, 1, 3, 3], [3, 3, 3, 3, 3], [1, 3, 1, 1, 3], [3, 3, 3, 3, 3], [3, 1, 3, 3, 0]]","[4, 5, 6, 2, 13]",14,26,4,0.055,0.05466666666666667,0.0003333333333333333,[24],1,extreme,5,5,2519,1,165,164,attentional-mouselab,30,429306,5
mouselab,False,"[1, 13, 4]","[[3, 0, 5, 3, 5], [3, 6, 7, 6, 2], [6, 4, 5, 2, 3], [6, 5, 5, 4, 7], [5, 8, 7, 4, 6]]","[[3, 0, 3, 3, 0], [3, 3, 3, 1, 1], [3, 3, 3, 0, 3], [3, 3, 3, 3, 1], [3, 3, 3, 3, 3]]","[5, 3, 17, 3, 2]",22,27,4,0.038,0.037,0.001,"[1, 13, 4]",3,extreme,5,5,4939,3,115,112,attentional-mouselab,31,435458,5
mouselab,False,"[21, 24, 3, 22]","[[3, 5, 5, 4, 5], [5, 8, 3, 4, 5], [6, 7, 6, 7, 7], [5, 8, 5, 5, 9], [4, 5, 7, 7, 1]]","[[3, 3, 3, 0, 3], [3, 1, 3, 3, 3], [3, 3, 3, 3, 3], [3, 3, 3, 3, 1], [3, 0, 0, 3, 0]]","[1, 3, 10, 10, 6]",16,28,2,0.055,0.05366666666666667,0.0013333333333333333,"[21, 24, 3, 22]",4,extreme,5,5,7241,4,166,162,attentional-mouselab,32,444669,5
mouselab,False,"[0, 12, 24]","[[4, 6, 4, 6, 6], [6, 5, 5, 6, 5], [1, 6, 5, 5, 5], [7, 6, 6, 8, 4], [5, 5, 6, 6, 6]]","[[0, 3, 3, 3, 3], [1, 3, 3, 3, 3], [3, 3, 0, 3, 3], [3, 3, 3, 3, 3], [1, 3, 3, 1, 0]]","[9, 1, 9, 6, 5]",12,29,4,0.053,0.052,0.001,"[0, 12, 24]",3,random,5,5,6207,3,158,155,attentional-mouselab,33,451852,5
mouselab,False,"[17, 3]","[[5, 3, 3, 10, 7], [7, 7, 4, 6, 3], [2, 4, 4, 4, 4], [4, 4, 4, 6, 7], [7, 1, 7, 5, 5]]","[[1, 3, 3, 0, 1], [3, 1, 3, 3, 3], [3, 3, 3, 1, 3], [3, 3, 0, 3, 3], [3, 3, 3, 3, 3]]","[3, 3, 1, 21, 2]",30,30,3,0.063,0.06233333333333333,0.0006666666666666666,"[17, 3]",2,greedy,5,5,3461,2,188,186,attentional-mouselab,34,456297,5
mouselab,False,"[21, 0]","[[4, 7, 7, 4, 4], [6, 3, 6, 5, 6], [5, 3, 10, 4, 5], [2, 8, 6, 5, 6], [4, 5, 6, 5, 6]]","[[0, 3, 3, 3, 3], [3, 3, 3, 3, 1], [3, 3, 1, 3, 3], [1, 1, 3, 3, 3], [3, 0, 3, 3, 3]]","[7, 6, 5, 8, 4]",6,31,1,0.055,0.05433333333333333,0.0006666666666666666,"[21, 0]",2,extreme,5,5,3428,2,166,164,attentional-mouselab,35,460636,5
mouselab,False,[9],"[[0, 5, 6, 6, 2], [3, 3, 6, 7, 8], [3, 7, 6, 5, 3], [5, 3, 8, 6, 3], [7, 5, 5, 5, 8]]","[[1, 3, 3, 3, 1], [3, 3, 3, 3, 0], [3, 3, 3, 3, 3], [3, 1, 3, 3, 3], [1, 1, 3, 3, 3]]","[1, 2, 19, 5, 3]",26,32,4,0.038,0.03766666666666667,0.0003333333333333333,[9],1,extreme,5,5,2444,1,114,113,attentional-mouselab,36,464221,5
mouselab,True,[],"[[1, 4, 5, 5, 2], [6, 2, 3, 6, 8], [4, 4, 4, 5, 5], [3, 5, 6, 3, 4], [4, 3, 5, 2, 5]]","[[1, 3, 1, 3, 1], [3, 1, 3, 3, 3], [3, 3, 3, 3, 3], [1, 3, 3, 1, 3], [3, 3, 3, 3, 3]]","[4, 4, 11, 5, 6]",10,1,1,0.037,0.037,0.0,[],0,extreme,5,5,4662,0,111,111,attentional-mouselab,4,244847,6
mouselab,True,[],"[[3, 7, 3, 4, 5], [4, 4, 6, 6, 6], [4, 0, 7, 5, 6], [5, 6, 5, 4, 4], [1, 6, 4, 7, 4]]","[[1, 3, 3, 3, 3], [3, 3, 3, 1, 3], [3, 3, 3, 3, 3], [3, 3, 3, 3, 1], [1, 3, 1, 1, 3]]","[7, 3, 16, 3, 1]",22,2,2,0.057,0.057,0.0,[],0,random,5,5,2989,0,170,170,attentional-mouselab,5,250993,6
mouselab,False,[],"[[1, 4, 5, 5, 2], [6, 2, 3, 6, 8], [4, 4, 4, 5, 5], [3, 5, 6, 3, 4], [4, 3, 5, 2, 5]]","[[1, 3, 1, 3, 1], [3, 1, 3, 3, 3], [3, 3, 3, 3, 3], [1, 3, 3, 1, 3], [3, 3, 3, 3, 3]]","[18, 2, 1, 3, 6]",24,3,0,0.022,0.022,0.0,[],0,extreme,5,5,1682,0,67,67,attentional-mouselab,7,256637,6
mouselab,False,[],"[[3, 7, 3, 4, 5], [4, 4, 6, 6, 6], [4, 0, 7, 5, 6], [5, 6, 5, 4, 4], [1, 6, 4, 7, 4]]","[[1, 3, 3, 3, 3], [3, 3, 3, 1, 3], [3, 3, 3, 3, 3], [3, 3, 3, 3, 1], [1, 3, 1, 1, 3]]","[3, 1, 4, 3, 19]",26,4,2,0.045,0.045,0.0,[],0,random,5,5,1584,0,134,134,attentional-mouselab,8,260462,6
mouselab,False,[],"[[2, 6, 2, 5, 6], [2, 4, 5, 7, 4], [3, 5, 5, 8, 5], [3, 5, 3, 8, 6], [7, 7, 7, 5, 4]]","[[3, 3, 1, 3, 3], [3, 1, 3, 3, 3], [3, 1, 3, 1, 3], [3, 3, 3, 3, 3], [1, 3, 1, 3, 3]]","[5, 7, 5, 6, 7]",4,5,2,0.046,0.046,0.0,[],0,greedy,5,5,3513,0,137,137,attentional-mouselab,9,265726,6
mouselab,False,[],"[[4, 7, 5, 6, 6], [6, 6, 3, 4, 7], [4, 5, 2, 3, 6], [3, 5, 7, 6, 5], [7, 5, 6, 5, 4]]","[[3, 1, 1, 3, 3], [1, 3, 1, 1, 3], [3, 3, 1, 3, 3], [3, 3, 3, 3, 3], [3, 3, 3, 3, 3]]","[1, 14, 1, 13, 1]",30,6,0,0.046,0.046,0.0,[],0,extreme,5,5,1782,0,138,138,attentional-mouselab,10,268687,6
mouselab,False,[],"[[8, 8, 4, 5, 6], [5, 4, 7, 4, 6], [6, 6, 2, 5, 3], [6, 9, 4, 4, 4], [10, 5, 8, 2, 7]]","[[3, 3, 3, 3, 3], [3, 1, 3, 3, 3], [3, 3, 3, 1, 3], [1, 3, 3, 3, 1], [3, 1, 3, 1, 3]]","[7, 4, 4, 6, 9]",8,7,2,0.053,0.053,0.0,[],0,random,5,5,1813,0,160,160,attentional-mouselab,11,273356,6
mouselab,False,[],"[[5, 7, 5, 5, 4], [9, 8, 8, 7, 7], [5, 3, 7, 5, 4], [5, 4, 2, 2, 8], [4, 5, 6, 7, 3]]","[[3, 3, 3, 3, 3], [1, 1, 1, 3, 3], [3, 3, 3, 3, 3], [3, 3, 1, 1, 3], [3, 1, 3, 3, 3]]","[1, 14, 9, 3, 3]",22,8,4,0.057,0.057,0.0,[],0,extreme,5,5,1153,0,171,171,attentional-mouselab,12,275831,6
mouselab,False,[],"[[5, 2, 4, 6, 4], [5, 6, 6, 6, 6], [7, 7, 3, 7, 5], [4, 2, 3, 7, 9], [6, 5, 6, 3, 7]]","[[3, 3, 3, 3, 1], [1, 3, 1, 3, 3], [1, 1, 3, 3, 1], [3, 3, 3, 3, 3], [3, 3, 3, 3, 3]]","[7, 4, 2, 3, 14]",18,9,3,0.048,0.048,0.0,[],0,random,5,5,1146,0,143,143,attentional-mouselab,13,279173,6
mouselab,False,[],"[[3, 8, 5, 6, 6], [7, 3, 7, 5, 5], [6, 4, 3, 6, 4], [5, 6, 5, 4, 7], [3, 6, 3, 8, 5]]","[[3, 3, 3, 3, 3], [3, 3, 3, 3, 3], [3, 1, 3, 3, 1], [3, 3, 1, 1, 3], [3, 1, 1, 3, 3]]","[1, 8, 12, 3, 6]",16,10,0,0.055,0.055,0.0,[],0,random,5,5,1113,0,164,164,attentional-mouselab,14,281552,6
mouselab,False,[],"[[4, 3, 6, 7, 6], [3, 7, 7, 5, 2], [4, 7, 5, 3, 4], [3, 5, 3, 7, 6], [4, 4, 4, 1, 6]]","[[3, 1, 3, 3, 3], [3, 1, 1, 1, 1], [3, 3, 3, 3, 3], [3, 3, 3, 3, 3], [3, 3, 3, 1, 3]]","[5, 6, 6, 5, 8]",4,11,0,0.036,0.036,0.0,[],0,extreme,5,5,1061,0,109,109,attentional-mouselab,15,283560,6
mouselab,False,[],"[[5, 6, 8, 5, 5], [2, 5, 4, 6, 3], [3, 6, 5, 4, 4], [7, 5, 6, 6, 5], [6, 5, 4, 6, 6]]","[[3, 3, 1, 3, 1], [1, 3, 3, 3, 1], [1, 3, 3, 3, 3], [3, 3, 3, 3, 3], [3, 3, 1, 3, 3]]","[6, 3, 3, 6, 12]",12,12,2,0.053,0.053,0.0,[],0,extreme,5,5,952,0,159,159,attentional-mouselab,16,285692,6
mouselab,False,[],"[[2, 7, 6, 6, 5], [4, 7, 5, 0, 4], [7, 4, 7, 5, 10], [0, 3, 4, 6, 4], [6, 6, 6, 9, 5]]","[[3, 3, 3, 3, 3], [3, 1, 3, 3, 3], [1, 1, 3, 3, 3], [3, 1, 3, 3, 3], [1, 1, 3, 3, 3]]","[7, 5, 4, 7, 7]",6,13,2,0.055,0.055,0.0,[],0,random,5,5,1518,0,165,165,attentional-mouselab,17,288050,6
mouselab,False,[],"[[6, 6, 4, 7, 4], [5, 8, 6, 6, 3], [6, 5, 7, 6, 4], [6, 6, 4, 5, 5], [8, 6, 6, 6, 4]]","[[3, 3, 1, 1, 3], [3, 1, 3, 3, 3], [1, 3, 1, 3, 3], [3, 3, 3, 3, 3], [1, 3, 3, 3, 3]]","[7, 2, 7, 11, 3]",14,14,2,0.05,0.05,0.0,[],0,greedy,5,5,1029,0,151,151,attentional-mouselab,18,289940,6
mouselab,False,[],"[[6, 6, 7, 8, 6], [5, 5, 7, 5, 2], [4, 2, 4, 2, 7], [8, 8, 4, 3, 6], [4, 6, 6, 1, 7]]","[[3, 3, 3, 1, 3], [3, 3, 3, 3, 1], [3, 1, 3, 3, 3], [3, 1, 1, 3, 3], [3, 3, 3, 1, 3]]","[11, 2, 1, 9, 7]",18,15,3,0.045,0.045,0.0,[],0,extreme,5,5,1432,0,134,134,attentional-mouselab,19,292559,6
mouselab,False,[],"[[4, 3, 3, 4, 5], [6, 5, 4, 5, 9], [7, 8, 8, 4, 3], [1, 5, 6, 6, 4], [8, 2, 6, 9, 3]]","[[3, 3, 3, 3, 3], [3, 3, 3, 3, 1], [3, 1, 1, 1, 3], [3, 1, 3, 3, 3], [3, 3, 3, 1, 3]]","[4, 4, 2, 9, 11]",16,16,0,0.05,0.05,0.0,[],0,greedy,5,5,1188,0,151,151,attentional-mouselab,20,294604,6
mouselab,False,[],"[[5, 5, 2, 4, 5], [5, 5, 5, 5, 4], [7, 5, 3, 7, 4], [6, 6, 6, 4, 5], [5, 8, 3, 6, 7]]","[[3, 3, 1, 3, 3], [3, 3, 3, 3, 3], [1, 3, 3, 1, 3], [3, 3, 3, 3, 3], [3, 1, 3, 1, 1]]","[4, 3, 1, 6, 16]",20,17,2,0.037,0.037,0.0,[],0,greedy,5,5,1696,0,110,110,attentional-mouselab,21,297189,6
mouselab,False,[],"[[6, 4, 8, 5, 5], [7, 5, 5, 5, 5], [8, 5, 5, 2, 5], [0, 7, 8, 7, 4], [3, 6, 7, 3, 5]]","[[3, 3, 3, 1, 3], [3, 3, 3, 1, 3], [3, 3, 1, 3, 1], [3, 3, 3, 3, 1], [3, 3, 1, 3, 3]]","[2, 17, 2, 6, 3]",22,18,1,0.054,0.054,0.0,[],0,random,5,5,1796,0,163,163,attentional-mouselab,22,300334,6
mouselab,False,[],"[[2, 2, 4, 5, 7], [4, 6, 6, 7, 7], [6, 3, 5, 4, 5], [6, 3, 3, 2, 10], [2, 4, 6, 2, 4]]","[[1, 1, 3, 3, 1], [3, 3, 1, 3, 3], [3, 3, 3, 3, 3], [3, 3, 3, 3, 1], [1, 3, 3, 3, 3]]","[1, 14, 5, 8, 2]",20,19,0,0.047,0.047,0.0,[],0,extreme,5,5,1617,0,140,140,attentional-mouselab,23,303034,6
mouselab,False,[],"[[3, 2, 5, 5, 5], [4, 6, 6, 4, 5], [3, 4, 6, 8, 9], [3, 4, 5, 3, 6], [6, 4, 7, 4, 0]]","[[1, 3, 1, 3, 3], [3, 3, 3, 3, 3], [3, 3, 1, 1, 1], [1, 3, 3, 3, 3], [3, 3, 3, 3, 3]]","[8, 5, 4, 6, 7]",6,20,3,0.046,0.046,0.0,[],0,greedy,5,5,1599,0,138,138,attentional-mouselab,24,307736,6
mouselab,False,[],"[[4, 5, 8, 4, 4], [5, 3, 5, 5, 4], [4, 6, 5, 5, 4], [6, 7, 8, 3, 7], [3, 6, 3, 3, 8]]","[[3, 1, 1, 1, 3], [3, 3, 3, 3, 3], [3, 3, 3, 1, 3], [1, 3, 3, 1, 3], [3, 3, 3, 3, 3]]","[1, 7, 11, 1, 10]",20,21,1,0.053,0.053,0.0,[],0,random,5,5,1497,0,159,159,attentional-mouselab,25,310562,6
mouselab,False,[],"[[7, 6, 6, 7, 2], [3, 6, 3, 4, 6], [7, 4, 4, 5, 6], [6, 3, 5, 7, 5], [5, 3, 5, 7, 6]]","[[1, 1, 3, 1, 3], [1, 1, 3, 3, 3], [3, 3, 3, 3, 3], [3, 3, 3, 3, 1], [3, 3, 3, 3, 3]]","[6, 5, 4, 7, 8]",6,22,3,0.062,0.062,0.0,[],0,greedy,5,5,1104,0,187,187,attentional-mouselab,26,314096,6
mouselab,False,[],"[[3, 4, 7, 3, 4], [4, 7, 9, 3, 3], [4, 7, 7, 8, 5], [5, 9, 4, 5, 2], [6, 4, 6, 7, 7]]","[[3, 1, 3, 1, 3], [3, 3, 3, 3, 3], [3, 1, 1, 1, 3], [3, 3, 3, 3, 3], [3, 3, 1, 3, 3]]","[6, 2, 4, 17, 1]",22,23,3,0.049,0.049,0.0,[],0,greedy,5,5,5741,0,148,148,attentional-mouselab,27,320830,6
mouselab,False,[],"[[5, 7, 6, 5, 3], [5, 3, 6, 3, 5], [4, 6, 5, 6, 5], [5, 3, 7, 6, 5], [4, 5, 5, 5, 4]]","[[1, 3, 3, 3, 3], [3, 3, 3, 1, 3], [3, 3, 3, 3, 3], [3, 3, 1, 3, 1], [3, 1, 3, 1, 3]]","[5, 8, 3, 1, 13]",18,24,1,0.048,0.048,0.0,[],0,random,5,5,2449,0,145,145,attentional-mouselab,28,324154,6
mouselab,False,[7],"[[4, 6, 5, 6, 5], [6, 8, 3, 4, 5], [5, 3, 5, 5, 5], [8, 3, 8, 9, 4], [4, 2, 3, 5, 5]]","[[1, 3, 3, 3, 1], [3, 1, 2, 3, 3], [3, 3, 3, 3, 3], [1, 3, 1, 1, 3], [3, 3, 3, 3, 3]]","[8, 6, 1, 10, 5]",12,25,2,0.053,0.05266666666666667,0.0003333333333333333,[],0,greedy,5,5,3363,1,158,157,attentional-mouselab,29,328682,6
mouselab,False,[],"[[4, 5, 6, 7, 3], [4, 3, 8, 5, 6], [5, 5, 5, 5, 6], [6, 7, 6, 9, 7], [1, 7, 6, 4, 7]]","[[3, 3, 3, 3, 3], [3, 3, 3, 3, 3], [3, 3, 3, 3, 3], [3, 1, 1, 1, 1], [3, 1, 3, 1, 3]]","[4, 6, 8, 8, 4]",8,26,1,0.054,0.054,0.0,[],0,greedy,5,5,2731,0,162,162,attentional-mouselab,30,333875,6
mouselab,False,[],"[[3, 7, 9, 6, 7], [9, 6, 5, 4, 8], [3, 6, 4, 5, 8], [7, 4, 3, 5, 6], [4, 8, 4, 5, 5]]","[[3, 3, 3, 3, 1], [3, 3, 1, 3, 1], [1, 1, 1, 3, 3], [3, 3, 3, 3, 3], [3, 3, 3, 3, 3]]","[16, 4, 2, 1, 7]",22,27,4,0.067,0.067,0.0,[],0,random,5,5,2156,0,201,201,attentional-mouselab,31,337432,6
mouselab,False,[],"[[5, 10, 6, 5, 4], [4, 3, 2, 3, 4], [8, 5, 3, 6, 5], [1, 7, 7, 6, 6], [4, 4, 6, 4, 5]]","[[3, 3, 3, 3, 3], [1, 3, 3, 3, 3], [3, 1, 1, 3, 3], [3, 3, 1, 3, 1], [3, 1, 3, 3, 3]]","[3, 4, 5, 13, 5]",14,28,0,0.035,0.035,0.0,[],0,random,5,5,1321,0,104,104,attentional-mouselab,32,339959,6
mouselab,False,[],"[[7, 5, 6, 5, 4], [4, 8, 6, 5, 6], [6, 4, 5, 6, 5], [4, 6, 4, 6, 3], [5, 7, 5, 3, 4]]","[[1, 3, 1, 3, 3], [1, 1, 3, 3, 3], [3, 3, 3, 3, 3], [3, 1, 3, 3, 1], [3, 3, 3, 3, 3]]","[4, 11, 2, 5, 8]",14,29,1,0.067,0.067,0.0,[],0,extreme,5,5,1448,0,202,202,attentional-mouselab,33,343205,6
mouselab,False,[],"[[5, 2, 7, 7, 2], [6, 4, 5, 5, 8], [2, 5, 4, 4, 3], [6, 4, 4, 6, 3], [4, 6, 5, 6, 6]]","[[1, 1, 3, 3, 1], [1, 3, 3, 3, 1], [3, 3, 3, 3, 3], [1, 3, 3, 3, 3], [3, 3, 3, 3, 3]]","[3, 1, 3, 9, 14]",22,30,2,0.048,0.048,0.0,[],0,extreme,5,5,1136,0,144,144,attentional-mouselab,34,345470,6
mouselab,False,[],"[[5, 3, 5, 7, 2], [7, 7, 3, 6, 2], [4, 5, 9, 4, 4], [1, 4, 5, 5, 6], [6, 5, 4, 6, 4]]","[[1, 1, 3, 3, 3], [1, 1, 3, 3, 3], [3, 3, 1, 3, 3], [3, 3, 3, 1, 3], [3, 3, 3, 3, 3]]","[1, 11, 3, 3, 12]",22,31,1,0.056,0.056,0.0,[],0,greedy,5,5,2572,0,167,167,attentional-mouselab,35,351088,6
mouselab,False,[],"[[4, 7, 3, 3, 5], [5, 6, 3, 4, 4], [7, 7, 5, 9, 7], [6, 6, 6, 4, 4], [2, 6, 1, 5, 6]]","[[3, 3, 3, 3, 3], [3, 3, 1, 3, 1], [3, 1, 3, 1, 3], [3, 3, 3, 3, 3], [1, 3, 1, 3, 3]]","[9, 4, 6, 2, 9]",12,32,2,0.03,0.03,0.0,[],0,extreme,5,5,5400,0,90,90,attentional-mouselab,36,359583,6
mouselab,True,[],"[[7, 5, 1, 6, 6], [8, 9, 4, 6, 6], [3, 3, 5, 6, 7], [4, 3, 5, 4, 3], [3, 4, 6, 6, 3]]","[[3, 3, 3, 3, 1], [3, 3, 1, 3, 3], [1, 1, 3, 3, 1], [3, 3, 3, 3, 3], [3, 3, 1, 3, 3]]","[13, 1, 2, 11, 3]",24,1,4,0.047,0.047,0.0,[],0,random,5,5,10701,0,140,140,attentional-mouselab,4,195978,7
mouselab,True,[],"[[4, 4, 7, 4, 2], [6, 5, 4, 6, 5], [4, 5, 5, 7, 5], [6, 7, 8, 5, 6], [5, 6, 8, 5, 7]]","[[3, 3, 3, 3, 3], [1, 3, 3, 3, 3], [3, 3, 3, 3, 3], [1, 1, 1, 1, 3], [3, 3, 3, 3, 1]]","[1, 6, 13, 5, 5]",14,2,0,0.049,0.049,0.0,[],0,greedy,5,5,11157,0,147,147,attentional-mouselab,5,209169,7
mouselab,False,[],"[[7, 5, 1, 6, 6], [8, 9, 4, 6, 6], [3, 3, 5, 6, 7], [4, 3, 5, 4, 3], [3, 4, 6, 6, 3]]","[[3, 3, 3, 3, 1], [3, 3, 1, 3, 3], [1, 1, 3, 3, 1], [3, 3, 3, 3, 3], [3, 3, 1, 3, 3]]","[7, 6, 8, 8, 1]",10,3,4,0.054,0.054,0.0,[],0,random,5,5,5403,0,161,161,attentional-mouselab,7,217979,7
mouselab,False,[],"[[4, 4, 7, 4, 2], [6, 5, 4, 6, 5], [4, 5, 5, 7, 5], [6, 7, 8, 5, 6], [5, 6, 8, 5, 7]]","[[3, 3, 3, 3, 3], [1, 3, 3, 3, 3], [3, 3, 3, 3, 3], [1, 1, 1, 1, 3], [3, 3, 3, 3, 1]]","[2, 4, 6, 16, 2]",20,4,0,0.054,0.054,0.0,[],0,greedy,5,5,4876,0,162,162,attentional-mouselab,8,224345,7
mouselab,False,[],"[[5, 5, 4, 3, 4], [3, 7, 4, 5, 4], [4, 6, 4, 4, 6], [5, 6, 5, 6, 8], [5, 6, 6, 5, 5]]","[[3, 3, 1, 3, 3], [1, 1, 3, 3, 1], [3, 3, 1, 3, 3], [3, 3, 3, 3, 3], [3, 3, 3, 3, 1]]","[7, 8, 2, 8, 5]",10,5,4,0.054,0.054,0.0,[],0,random,5,5,5975,0,161,161,attentional-mouselab,9,231928,7
mouselab,False,[],"[[8, 5, 6, 4, 8], [4, 4, 5, 6, 4], [2, 5, 9, 4, 3], [3, 3, 6, 5, 5], [6, 6, 4, 4, 5]]","[[1, 3, 3, 3, 3], [3, 3, 3, 3, 3], [3, 3, 3, 3, 3], [1, 3, 1, 1, 3], [1, 3, 3, 3, 1]]","[5, 2, 3, 10, 10]",16,6,0,0.048,0.048,0.0,[],0,random,5,5,3966,0,144,144,attentional-mouselab,10,237505,7
mouselab,False,[],"[[6, 4, 7, 2, 5], [6, 5, 3, 6, 3], [6, 2, 4, 4, 8], [8, 5, 6, 4, 8], [3, 6, 8, 5, 6]]","[[1, 3, 1, 1, 3], [3, 1, 3, 3, 3], [3, 1, 3, 3, 1], [3, 3, 3, 3, 3], [3, 3, 3, 3, 3]]","[1, 9, 2, 5, 13]",20,7,1,0.052,0.052,0.0,[],0,extreme,5,5,5476,0,156,156,attentional-mouselab,11,244048,7
mouselab,False,[],"[[3, 8, 4, 7, 4], [3, 6, 3, 7, 2], [5, 4, 5, 3, 7], [5, 8, 4, 3, 6], [4, 0, 5, 4, 5]]","[[3, 3, 3, 1, 3], [3, 3, 3, 1, 3], [1, 3, 3, 3, 3], [3, 3, 1, 3, 3], [3, 1, 3, 1, 3]]","[9, 5, 11, 2, 3]",16,8,3,0.05,0.05,0.0,[],0,random,5,5,6239,0,149,149,attentional-mouselab,12,251601,7
mouselab,False,[],"[[2, 7, 6, 6, 5], [4, 7, 5, 0, 4], [7, 4, 7, 5, 10], [0, 3, 4, 6, 4], [6, 6, 6, 9, 5]]","[[3, 3, 3, 3, 3], [3, 1, 3, 3, 3], [1, 1, 3, 3, 3], [3, 1, 3, 3, 3], [1, 1, 3, 3, 3]]","[7, 6, 10, 6, 1]",10,9,1,0.052,0.052,0.0,[],0,random,5,5,2606,0,155,155,attentional-mouselab,13,255625,7
mouselab,False,[],"[[5, 6, 6, 4, 5], [6, 7, 5, 5, 1], [4, 5, 6, 6, 3], [2, 7, 8, 5, 5], [3, 8, 5, 5, 6]]","[[3, 1, 3, 3, 1], [1, 3, 3, 3, 1], [3, 3, 3, 3, 3], [3, 3, 1, 3, 3], [3, 1, 3, 3, 3]]","[3, 10, 8, 6, 3]",12,10,4,0.032,0.032,0.0,[],0,greedy,5,5,11014,0,97,97,attentional-mouselab,14,267825,7
mouselab,False,[],"[[6, 9, 4, 7, 4], [6, 4, 6, 2, 5], [2, 5, 5, 9, 7], [5, 4, 8, 6, 3], [6, 5, 5, 3, 3]]","[[1, 1, 3, 1, 3], [3, 3, 3, 3, 3], [3, 1, 3, 3, 1], [3, 3, 1, 3, 3], [3, 3, 3, 3, 3]]","[10, 7, 5, 6, 2]",10,11,1,0.059,0.059,0.0,[],0,greedy,5,5,6406,0,177,177,attentional-mouselab,15,275577,7
mouselab,False,[],"[[6, 4, 6, 4, 5], [4, 3, 2, 4, 5], [4, 4, 4, 3, 4], [5, 2, 3, 4, 5], [6, 8, 4, 4, 6]]","[[1, 3, 3, 3, 3], [3, 1, 1, 3, 3], [3, 3, 3, 1, 3], [3, 1, 3, 3, 3], [3, 1, 3, 3, 3]]","[2, 3, 6, 15, 4]",18,12,1,0.034,0.034,0.0,[],0,extreme,5,5,5214,0,103,103,attentional-mouselab,16,281857,7
mouselab,False,[],"[[2, 3, 3, 7, 4], [2, 8, 2, 6, 5], [5, 6, 8, 8, 5], [5, 4, 1, 7, 7], [7, 7, 8, 4, 5]]","[[1, 3, 3, 3, 3], [1, 1, 3, 3, 3], [1, 3, 3, 3, 3], [3, 3, 1, 3, 3], [3, 3, 3, 3, 1]]","[6, 9, 2, 9, 4]",12,13,0,0.038,0.038,0.0,[],0,extreme,5,5,6116,0,113,113,attentional-mouselab,17,289176,7
mouselab,False,[],"[[4, 1, 4, 6, 2], [6, 2, 4, 5, 6], [5, 3, 6, 3, 5], [4, 7, 3, 6, 4], [6, 7, 4, 2, 5]]","[[3, 1, 3, 3, 1], [3, 1, 3, 3, 3], [1, 3, 3, 3, 3], [1, 3, 3, 3, 3], [1, 3, 3, 3, 3]]","[1, 5, 6, 2, 16]",20,14,0,0.056,0.056,0.0,[],0,extreme,5,5,4736,0,168,168,attentional-mouselab,18,295025,7
mouselab,False,[],"[[8, 4, 6, 7, 3], [3, 4, 5, 3, 3], [6, 6, 4, 4, 5], [5, 5, 3, 5, 5], [4, 4, 5, 4, 5]]","[[1, 3, 3, 1, 1], [3, 3, 1, 3, 3], [3, 1, 3, 3, 3], [3, 3, 3, 3, 3], [1, 3, 3, 3, 3]]","[7, 7, 7, 3, 6]",6,15,0,0.053,0.053,0.0,[],0,greedy,5,5,5627,0,158,158,attentional-mouselab,19,302160,7
mouselab,False,[],"[[6, 1, 6, 7, 5], [6, 6, 5, 7, 7], [1, 4, 5, 7, 8], [5, 6, 5, 3, 1], [6, 8, 4, 5, 8]]","[[3, 3, 3, 1, 3], [1, 1, 3, 1, 3], [3, 3, 3, 3, 3], [3, 3, 3, 3, 3], [1, 3, 3, 3, 1]]","[6, 10, 10, 1, 3]",16,16,3,0.067,0.067,0.0,[],0,random,5,5,7702,0,200,200,attentional-mouselab,20,311047,7
mouselab,False,[],"[[5, 5, 5, 2, 5], [3, 5, 3, 4, 5], [2, 4, 6, 5, 6], [4, 4, 5, 3, 6], [6, 7, 5, 5, 3]]","[[3, 3, 3, 1, 3], [1, 3, 3, 1, 3], [1, 1, 3, 1, 3], [3, 3, 3, 3, 3], [3, 3, 3, 3, 3]]","[1, 5, 13, 3, 8]",18,17,3,0.045,0.045,0.0,[],0,extreme,5,5,3543,0,136,136,attentional-mouselab,21,316024,7
mouselab,False,[],"[[3, 4, 7, 5, 4], [3, 6, 7, 5, 6], [6, 6, 3, 6, 6], [5, 5, 6, 2, 7], [5, 8, 6, 6, 3]]","[[3, 3, 3, 1, 3], [3, 3, 1, 3, 3], [3, 1, 3, 3, 3], [3, 3, 3, 3, 3], [3, 1, 3, 1, 1]]","[6, 11, 3, 9, 1]",16,18,2,0.063,0.063,0.0,[],0,greedy,5,5,9031,0,188,188,attentional-mouselab,22,327104,7
mouselab,False,[],"[[5, 7, 5, 5, 7], [4, 7, 4, 6, 7], [4, 4, 6, 3, 6], [7, 7, 7, 6, 5], [5, 5, 6, 4, 1]]","[[3, 1, 3, 1, 3], [3, 3, 3, 3, 3], [1, 3, 3, 3, 3], [3, 3, 3, 3, 3], [1, 3, 1, 1, 3]]","[11, 3, 5, 2, 9]",16,19,0,0.049,0.049,0.0,[],0,random,5,5,8951,0,146,146,attentional-mouselab,23,343216,7
mouselab,False,[],"[[6, 6, 3, 5, 5], [3, 7, 3, 2, 1], [6, 4, 8, 8, 2], [4, 6, 5, 7, 4], [4, 6, 3, 7, 4]]","[[3, 3, 3, 3, 1], [3, 3, 3, 3, 1], [3, 3, 1, 1, 1], [3, 3, 3, 3, 3], [3, 3, 1, 3, 3]]","[1, 6, 5, 13, 5]",14,20,4,0.031,0.031,0.0,[],0,greedy,5,5,16950,0,93,93,attentional-mouselab,24,361696,7
mouselab,False,[],"[[5, 7, 6, 7, 4], [9, 4, 3, 6, 6], [5, 5, 6, 5, 5], [5, 7, 6, 5, 5], [7, 6, 5, 4, 4]]","[[3, 1, 3, 1, 3], [1, 1, 3, 3, 3], [1, 3, 3, 3, 3], [3, 3, 3, 3, 3], [1, 3, 3, 3, 3]]","[9, 11, 1, 2, 7]",18,21,0,0.069,0.069,0.0,[],0,extreme,5,5,4758,0,208,208,attentional-mouselab,25,367536,7
mouselab,False,[],"[[6, 4, 2, 6, 4], [2, 4, 6, 4, 6], [7, 3, 3, 6, 3], [6, 4, 4, 4, 5], [5, 8, 5, 3, 7]]","[[3, 3, 3, 3, 3], [1, 3, 3, 3, 1], [3, 3, 3, 1, 3], [1, 1, 3, 3, 3], [3, 3, 1, 3, 3]]","[2, 4, 5, 11, 8]",14,22,1,0.049,0.049,0.0,[],0,random,5,5,9441,0,147,147,attentional-mouselab,26,378512,7
mouselab,False,[],"[[8, 7, 4, 1, 5], [6, 7, 5, 6, 5], [4, 4, 5, 3, 5], [4, 5, 4, 1, 7], [5, 4, 6, 4, 8]]","[[1, 3, 3, 1, 3], [3, 3, 3, 3, 3], [3, 1, 3, 1, 3], [3, 3, 3, 1, 1], [3, 3, 3, 3, 3]]","[13, 7, 4, 2, 4]",16,23,3,0.028,0.028,0.0,[],0,extreme,5,5,5583,0,85,85,attentional-mouselab,27,385160,7
mouselab,False,[],"[[2, 5, 5, 3, 4], [5, 3, 6, 6, 7], [4, 6, 7, 2, 5], [8, 7, 4, 5, 6], [10, 6, 5, 5, 3]]","[[3, 3, 3, 3, 3], [3, 3, 3, 1, 1], [3, 3, 3, 1, 3], [3, 1, 3, 1, 3], [1, 3, 3, 3, 3]]","[5, 5, 1, 12, 7]",14,24,3,0.047,0.047,0.0,[],0,greedy,5,5,4518,0,142,142,attentional-mouselab,28,390976,7
mouselab,False,[],"[[7, 4, 4, 6, 6], [5, 6, 5, 6, 4], [5, 5, 5, 5, 6], [5, 5, 6, 2, 2], [4, 7, 5, 9, 7]]","[[1, 3, 3, 1, 3], [3, 3, 3, 3, 3], [3, 3, 3, 3, 3], [1, 3, 3, 1, 1], [3, 3, 3, 1, 3]]","[4, 3, 2, 14, 7]",18,25,3,0.048,0.048,0.0,[],0,extreme,5,5,5318,0,143,143,attentional-mouselab,29,398439,7
mouselab,False,[],"[[2, 5, 6, 5, 5], [5, 7, 5, 4, 4], [3, 6, 5, 8, 5], [4, 6, 7, 5, 5], [4, 3, 2, 7, 2]]","[[1, 1, 1, 3, 3], [3, 3, 3, 1, 3], [3, 3, 3, 1, 3], [3, 3, 3, 3, 3], [3, 3, 1, 3, 3]]","[4, 4, 3, 3, 16]",20,26,2,0.037,0.037,0.0,[],0,extreme,5,5,9607,0,112,112,attentional-mouselab,30,409352,7
mouselab,False,[],"[[4, 5, 4, 7, 3], [3, 6, 4, 5, 5], [6, 4, 5, 7, 3], [7, 5, 8, 6, 9], [3, 8, 5, 7, 4]]","[[3, 1, 3, 3, 3], [1, 3, 3, 1, 1], [3, 3, 3, 3, 3], [3, 3, 3, 3, 3], [1, 3, 1, 3, 3]]","[9, 2, 4, 3, 12]",18,27,0,0.041,0.041,0.0,[],0,random,5,5,9807,0,123,123,attentional-mouselab,31,420432,7
mouselab,False,[],"[[4, 5, 8, 4, 3], [5, 4, 5, 5, 3], [4, 2, 6, 6, 6], [6, 4, 3, 7, 5], [2, 5, 7, 8, 2]]","[[3, 3, 1, 1, 3], [1, 3, 3, 3, 3], [3, 1, 3, 3, 3], [3, 3, 3, 3, 3], [1, 3, 3, 1, 3]]","[2, 2, 9, 4, 13]",20,28,3,0.068,0.068,0.0,[],0,extreme,5,5,8167,0,204,204,attentional-mouselab,32,429994,7
mouselab,False,[],"[[6, 5, 8, 7, 2], [7, 6, 2, 3, 3], [3, 6, 4, 6, 8], [1, 5, 4, 4, 5], [6, 3, 8, 1, 5]]","[[3, 3, 1, 1, 1], [3, 3, 3, 3, 3], [3, 1, 3, 3, 1], [3, 3, 3, 3, 3], [3, 1, 3, 3, 3]]","[14, 6, 2, 2, 6]",16,29,4,0.034,0.034,0.0,[],0,greedy,5,5,7406,0,102,102,attentional-mouselab,33,438656,7
mouselab,False,[],"[[7, 6, 6, 4, 7], [4, 7, 5, 6, 7], [1, 3, 5, 4, 3], [1, 7, 4, 6, 3], [10, 2, 6, 6, 9]]","[[3, 3, 3, 3, 3], [3, 1, 3, 3, 3], [3, 3, 3, 3, 1], [3, 3, 3, 3, 1], [1, 3, 3, 1, 1]]","[1, 14, 12, 2, 1]",28,30,4,0.052,0.052,0.0,[],0,greedy,5,5,3014,0,156,156,attentional-mouselab,34,442785,7
mouselab,False,[],"[[3, 8, 7, 6, 5], [4, 5, 4, 5, 4], [10, 3, 9, 6, 6], [5, 5, 7, 3, 4], [3, 5, 2, 4, 5]]","[[3, 1, 3, 1, 1], [3, 3, 3, 3, 3], [3, 1, 3, 1, 3], [3, 3, 3, 3, 3], [3, 3, 3, 1, 3]]","[3, 15, 5, 3, 4]",18,31,3,0.049,0.049,0.0,[],0,random,5,5,6718,0,148,148,attentional-mouselab,35,450681,7
mouselab,False,[],"[[3, 4, 6, 4, 7], [5, 4, 4, 2, 7], [8, 5, 7, 3, 4], [4, 6, 3, 6, 7], [2, 2, 6, 6, 8]]","[[3, 3, 3, 3, 1], [3, 3, 3, 3, 3], [1, 3, 1, 3, 3], [3, 3, 3, 3, 3], [1, 3, 1, 3, 1]]","[5, 5, 8, 5, 7]",6,32,2,0.054,0.054,0.0,[],0,greedy,5,5,11014,0,163,163,attentional-mouselab,36,463017,7
mouselab,True,[],"[[4, 0, 8, 5, 4], [5, 3, 8, 7, 4], [8, 4, 4, 5, 4], [6, 6, 8, 6, 6], [6, 7, 1, 7, 7]]","[[3, 3, 3, 3, 3], [1, 3, 3, 3, 3], [3, 3, 3, 3, 1], [1, 1, 1, 3, 1], [3, 3, 3, 3, 3]]","[1, 2, 3, 13, 11]",24,1,1,0.058,0.058,0.0,[],0,greedy,5,5,2404,0,173,173,attentional-mouselab,4,119356,8
mouselab,True,[],"[[3, 3, 6, 6, 8], [5, 6, 3, 3, 4], [9, 4, 3, 3, 6], [2, 8, 4, 5, 9], [5, 4, 5, 3, 2]]","[[3, 3, 1, 3, 3], [3, 3, 3, 1, 3], [1, 3, 3, 3, 3], [1, 1, 3, 3, 1], [3, 3, 3, 3, 3]]","[9, 3, 7, 4, 7]",10,2,3,0.042,0.042,0.0,[],0,greedy,5,5,2937,0,125,125,attentional-mouselab,5,123938,8
mouselab,False,[],"[[4, 0, 8, 5, 4], [5, 3, 8, 7, 4], [8, 4, 4, 5, 4], [6, 6, 8, 6, 6], [6, 7, 1, 7, 7]]","[[3, 3, 3, 3, 3], [1, 3, 3, 3, 3], [3, 3, 3, 3, 1], [1, 1, 1, 3, 1], [3, 3, 3, 3, 3]]","[3, 9, 14, 2, 2]",22,3,1,0.036,0.036,0.0,[],0,greedy,5,5,5060,0,109,109,attentional-mouselab,7,137604,8
mouselab,False,[],"[[3, 3, 6, 6, 8], [5, 6, 3, 3, 4], [9, 4, 3, 3, 6], [2, 8, 4, 5, 9], [5, 4, 5, 3, 2]]","[[3, 3, 1, 3, 3], [3, 3, 3, 1, 3], [1, 3, 3, 3, 3], [1, 1, 3, 3, 1], [3, 3, 3, 3, 3]]","[10, 5, 6, 6, 3]",8,4,4,0.065,0.065,0.0,[],0,greedy,5,5,1797,0,196,196,attentional-mouselab,8,141422,8
mouselab,False,[],"[[6, 3, 3, 7, 7], [5, 5, 4, 4, 5], [6, 6, 6, 5, 0], [6, 3, 7, 5, 6], [9, 4, 5, 6, 3]]","[[3, 3, 3, 3, 1], [3, 1, 1, 3, 3], [3, 3, 1, 3, 3], [3, 3, 1, 3, 3], [1, 3, 3, 3, 3]]","[2, 2, 10, 3, 13]",22,5,1,0.046,0.046,0.0,[],0,greedy,5,5,1670,0,137,137,attentional-mouselab,9,144451,8
mouselab,False,"[10, 10, 10]","[[7, 4, 4, 4, 5], [4, 1, 4, 5, 5], [3, 4, 2, 4, 7], [7, 6, 6, 8, 3], [3, 5, 5, 5, 5]]","[[3, 1, 3, 1, 3], [1, 3, 1, 3, 1], [0, 3, 3, 3, 3], [3, 3, 3, 3, 3], [3, 3, 3, 3, 1]]","[5, 14, 3, 7, 1]",18,6,0,0.051,0.049999999999999996,0.001,[10],1,random,5,5,9531,3,152,149,attentional-mouselab,10,155431,8
mouselab,False,[],"[[2, 6, 6, 2, 6], [7, 4, 6, 6, 5], [4, 6, 4, 4, 1], [5, 6, 8, 1, 4], [5, 4, 4, 4, 4]]","[[1, 3, 3, 1, 1], [3, 3, 3, 3, 3], [3, 3, 3, 3, 1], [3, 3, 1, 1, 3], [3, 3, 3, 3, 3]]","[6, 5, 3, 14, 2]",16,7,2,0.066,0.066,0.0,[],0,extreme,5,5,1243,0,198,198,attentional-mouselab,11,157591,8
mouselab,False,[],"[[5, 5, 5, 8, 5], [7, 4, 6, 7, 4], [3, 6, 3, 4, 8], [6, 7, 6, 7, 5], [6, 4, 4, 8, 4]]","[[3, 3, 3, 1, 3], [1, 1, 3, 3, 3], [3, 3, 3, 3, 1], [3, 3, 3, 3, 3], [3, 1, 3, 1, 3]]","[10, 1, 7, 5, 7]",12,8,3,0.069,0.069,0.0,[],0,extreme,5,5,1026,0,206,206,attentional-mouselab,12,161433,8
mouselab,False,[],"[[5, 5, 6, 5, 8], [6, 6, 7, 5, 6], [7, 4, 5, 6, 5], [6, 6, 3, 6, 3], [5, 6, 5, 3, 5]]","[[3, 3, 3, 3, 1], [3, 1, 1, 3, 3], [3, 3, 3, 3, 1], [3, 3, 3, 3, 3], [1, 3, 1, 3, 3]]","[6, 6, 6, 10, 2]",8,9,2,0.049,0.049,0.0,[],0,greedy,5,5,1303,0,148,148,attentional-mouselab,13,163592,8
mouselab,False,[],"[[5, 3, 3, 5, 4], [6, 4, 7, 3, 5], [5, 7, 2, 5, 3], [6, 5, 6, 4, 1], [4, 4, 3, 4, 6]]","[[3, 3, 3, 1, 3], [1, 3, 1, 3, 1], [3, 1, 3, 3, 3], [3, 3, 3, 1, 3], [3, 3, 3, 3, 3]]","[1, 5, 10, 8, 6]",12,10,3,0.042,0.042,0.0,[],0,greedy,5,5,959,0,126,126,attentional-mouselab,14,165669,8
mouselab,False,[],"[[4, 3, 7, 5, 5], [6, 7, 2, 8, 6], [10, 4, 5, 4, 7], [3, 7, 4, 7, 8], [5, 7, 4, 5, 2]]","[[3, 3, 3, 3, 1], [3, 3, 3, 1, 3], [1, 3, 3, 3, 3], [3, 1, 3, 3, 3], [1, 3, 3, 3, 1]]","[1, 13, 5, 7, 4]",16,11,1,0.064,0.064,0.0,[],0,greedy,5,5,48142,0,191,191,attentional-mouselab,15,215013,8
mouselab,False,[],"[[5, 8, 5, 5, 7], [4, 7, 5, 4, 4], [2, 3, 3, 0, 5], [6, 8, 8, 4, 6], [5, 10, 5, 4, 3]]","[[3, 3, 3, 3, 3], [3, 1, 3, 3, 3], [3, 3, 3, 1, 1], [3, 3, 3, 1, 3], [1, 3, 1, 3, 3]]","[1, 5, 5, 12, 7]",14,12,1,0.075,0.075,0.0,[],0,random,5,5,1026,0,224,224,attentional-mouselab,16,216948,8
mouselab,False,[],"[[5, 1, 3, 2, 8], [4, 7, 5, 4, 1], [6, 5, 7, 4, 2], [6, 5, 6, 5, 2], [4, 5, 7, 5, 6]]","[[1, 1, 3, 3, 3], [3, 3, 3, 3, 3], [3, 1, 3, 3, 1], [3, 1, 3, 3, 3], [3, 1, 3, 3, 3]]","[3, 1, 4, 7, 15]",20,13,2,0.063,0.063,0.0,[],0,random,5,5,1048,0,189,189,attentional-mouselab,17,218943,8
mouselab,False,"[2, 2, 2]","[[6, 5, 8, 4, 3], [3, 4, 5, 5, 4], [3, 5, 4, 4, 7], [6, 4, 7, 1, 6], [5, 7, 3, 6, 10]]","[[3, 3, 0, 3, 3], [3, 3, 3, 1, 3], [1, 3, 3, 3, 3], [3, 3, 3, 1, 1], [3, 1, 3, 1, 3]]","[7, 10, 4, 2, 7]",12,14,2,0.052,0.051,0.001,[2],1,random,5,5,3337,3,157,154,attentional-mouselab,18,223608,8
mouselab,False,"[24, 24, 24, 24]","[[5, 3, 7, 4, 4], [7, 4, 6, 2, 4], [8, 5, 6, 5, 3], [7, 3, 5, 6, 3], [5, 6, 6, 5, 6]]","[[1, 3, 3, 1, 3], [3, 3, 3, 3, 3], [3, 3, 1, 3, 3], [3, 1, 1, 3, 3], [3, 3, 3, 1, 0]]","[2, 5, 7, 9, 7]",10,15,4,0.039,0.038,0.001,[24],1,random,5,5,3711,3,118,115,attentional-mouselab,19,228581,8
mouselab,False,[],"[[7, 8, 2, 6, 5], [5, 7, 7, 8, 4], [7, 2, 2, 6, 8], [10, 7, 4, 5, 6], [4, 5, 6, 3, 5]]","[[1, 3, 3, 3, 3], [3, 1, 1, 3, 3], [3, 3, 3, 3, 1], [3, 1, 3, 3, 1], [3, 3, 3, 3, 3]]","[1, 8, 5, 3, 13]",18,16,0,0.055,0.055,0.0,[],0,random,5,5,1011,0,164,164,attentional-mouselab,20,230426,8
mouselab,False,[],"[[5, 7, 8, 6, 2], [2, 4, 8, 5, 5], [5, 3, 10, 6, 3], [6, 3, 7, 1, 4], [4, 4, 5, 3, 5]]","[[3, 3, 3, 3, 1], [1, 3, 3, 3, 3], [1, 3, 3, 1, 3], [3, 3, 3, 3, 1], [3, 3, 1, 3, 3]]","[5, 4, 8, 9, 4]",10,17,1,0.039,0.039,0.0,[],0,random,5,5,794,0,118,118,attentional-mouselab,21,231986,8
mouselab,False,[],"[[8, 3, 5, 5, 5], [2, 5, 10, 4, 7], [4, 6, 7, 6, 5], [5, 8, 7, 6, 5], [4, 5, 9, 4, 6]]","[[1, 3, 3, 3, 3], [1, 3, 1, 3, 1], [3, 3, 3, 3, 3], [3, 3, 3, 3, 3], [3, 1, 1, 3, 3]]","[4, 3, 10, 12, 1]",20,18,2,0.071,0.071,0.0,[],0,extreme,5,5,697,0,213,213,attentional-mouselab,22,233654,8
mouselab,False,[],"[[4, 7, 6, 3, 7], [6, 6, 6, 4, 9], [4, 2, 7, 6, 5], [2, 2, 8, 2, 6], [6, 7, 4, 3, 5]]","[[3, 3, 3, 3, 1], [3, 3, 3, 3, 1], [3, 1, 3, 3, 1], [1, 3, 3, 3, 3], [3, 3, 1, 3, 3]]","[2, 3, 2, 5, 18]",24,19,3,0.031,0.031,0.0,[],0,extreme,5,5,820,0,94,94,attentional-mouselab,23,235399,8
mouselab,False,[],"[[4, 2, 4, 8, 8], [7, 5, 4, 7, 5], [6, 6, 4, 1, 7], [2, 6, 4, 7, 5], [6, 6, 4, 3, 1]]","[[3, 1, 3, 1, 3], [1, 3, 3, 3, 3], [3, 3, 3, 1, 3], [3, 3, 1, 3, 3], [3, 3, 3, 3, 1]]","[4, 4, 3, 4, 15]",18,20,0,0.053,0.053,0.0,[],0,extreme,5,5,734,0,160,160,attentional-mouselab,24,237139,8
mouselab,False,[],"[[7, 8, 5, 5, 7], [4, 6, 6, 2, 7], [3, 6, 4, 4, 5], [5, 9, 4, 5, 2], [3, 6, 9, 8, 8]]","[[3, 1, 3, 3, 3], [3, 3, 3, 3, 3], [3, 3, 1, 3, 1], [3, 3, 3, 1, 3], [3, 3, 1, 3, 1]]","[10, 1, 5, 10, 4]",16,21,1,0.077,0.077,0.0,[],0,greedy,5,5,823,0,230,230,attentional-mouselab,25,238863,8
mouselab,False,[],"[[7, 7, 7, 2, 3], [6, 6, 5, 8, 5], [4, 3, 5, 4, 7], [3, 6, 6, 6, 5], [2, 2, 5, 2, 5]]","[[1, 3, 1, 3, 3], [3, 3, 3, 3, 3], [1, 3, 1, 3, 3], [3, 3, 3, 3, 3], [1, 1, 3, 3, 3]]","[2, 1, 23, 2, 2]",34,22,2,0.052,0.052,0.0,[],0,random,5,5,771,0,156,156,attentional-mouselab,26,240529,8
mouselab,False,[],"[[5, 4, 4, 3, 6], [4, 6, 6, 3, 3], [5, 7, 5, 5, 2], [3, 5, 5, 6, 4], [1, 4, 6, 6, 4]]","[[3, 3, 3, 3, 3], [3, 3, 3, 1, 3], [3, 1, 3, 3, 3], [3, 1, 3, 3, 3], [1, 3, 1, 1, 3]]","[3, 9, 3, 6, 9]",12,23,3,0.047,0.047,0.0,[],0,greedy,5,5,734,0,141,141,attentional-mouselab,27,242239,8
mouselab,False,[],"[[4, 5, 6, 5, 7], [5, 7, 9, 7, 5], [6, 3, 7, 6, 6], [5, 5, 5, 4, 2], [2, 8, 5, 3, 7]]","[[3, 3, 1, 3, 3], [1, 3, 3, 1, 1], [3, 3, 3, 3, 3], [3, 3, 3, 1, 3], [3, 3, 3, 1, 3]]","[7, 2, 1, 6, 14]",18,24,0,0.034,0.034,0.0,[],0,random,5,5,756,0,102,102,attentional-mouselab,28,245696,8
mouselab,False,[0],"[[8, 5, 6, 6, 6], [8, 6, 6, 3, 5], [4, 3, 6, 5, 3], [2, 8, 4, 5, 8], [4, 8, 6, 3, 3]]","[[0, 3, 3, 3, 3], [1, 3, 3, 3, 3], [3, 3, 3, 3, 3], [1, 1, 3, 3, 1], [3, 3, 3, 1, 3]]","[3, 9, 15, 2, 1]",24,25,0,0.055,0.05466666666666667,0.0003333333333333333,[0],1,extreme,5,5,2631,1,164,163,attentional-mouselab,29,251389,8
mouselab,False,"[24, 24, 9]","[[4, 4, 8, 5, 3], [5, 8, 8, 6, 6], [2, 7, 5, 6, 5], [5, 9, 2, 5, 6], [4, 7, 6, 5, 5]]","[[1, 3, 1, 3, 3], [3, 1, 3, 3, 0], [3, 3, 3, 3, 3], [3, 1, 3, 3, 3], [3, 3, 3, 3, 0]]","[9, 1, 2, 7, 11]",18,26,4,0.047,0.04633333333333333,0.0006666666666666666,"[24, 9]",2,extreme,5,5,10417,2,140,138,attentional-mouselab,30,263059,8
mouselab,False,[],"[[3, 6, 5, 2, 7], [4, 5, 4, 7, 7], [2, 5, 5, 5, 8], [6, 6, 6, 4, 3], [8, 6, 6, 7, 4]]","[[3, 3, 3, 1, 3], [3, 3, 3, 1, 1], [1, 3, 3, 3, 1], [3, 3, 3, 3, 1], [3, 3, 3, 3, 3]]","[3, 18, 3, 2, 4]",24,27,0,0.044,0.044,0.0,[],0,extreme,5,5,786,0,131,131,attentional-mouselab,31,264919,8
mouselab,False,[],"[[4, 3, 4, 5, 6], [5, 4, 5, 7, 6], [3, 7, 5, 4, 6], [3, 4, 6, 6, 5], [6, 9, 3, 2, 3]]","[[3, 3, 1, 3, 3], [3, 3, 3, 1, 1], [3, 3, 1, 3, 3], [3, 3, 3, 3, 3], [1, 1, 3, 3, 3]]","[1, 6, 2, 14, 7]",18,28,2,0.05,0.05,0.0,[],0,greedy,5,5,726,0,149,149,attentional-mouselab,32,266517,8
mouselab,False,[],"[[7, 6, 6, 7, 2], [3, 6, 3, 4, 6], [7, 4, 4, 5, 6], [6, 3, 5, 7, 5], [5, 3, 5, 7, 6]]","[[3, 3, 3, 3, 1], [1, 1, 3, 3, 3], [1, 3, 3, 3, 3], [3, 1, 3, 3, 1], [3, 3, 3, 3, 3]]","[7, 9, 8, 4, 2]",12,29,1,0.049,0.049,0.0,[],0,random,5,5,681,0,146,146,attentional-mouselab,33,268122,8
mouselab,False,[],"[[6, 8, 7, 2, 6], [6, 5, 9, 5, 5], [6, 6, 6, 3, 4], [2, 7, 4, 6, 4], [9, 4, 7, 5, 4]]","[[3, 1, 3, 3, 3], [1, 3, 1, 3, 3], [1, 3, 3, 3, 3], [3, 3, 3, 3, 1], [1, 3, 3, 3, 3]]","[1, 8, 15, 3, 3]",22,30,3,0.04,0.04,0.0,[],0,greedy,5,5,726,0,120,120,attentional-mouselab,34,269727,8
mouselab,False,[],"[[3, 4, 4, 3, 5], [7, 9, 6, 7, 4], [5, 6, 6, 2, 3], [7, 6, 6, 3, 5], [4, 3, 4, 7, 3]]","[[1, 3, 3, 3, 3], [3, 1, 3, 3, 3], [3, 3, 3, 1, 1], [1, 3, 3, 3, 3], [3, 3, 3, 1, 3]]","[6, 2, 16, 5, 1]",20,31,4,0.038,0.038,0.0,[],0,extreme,5,5,809,0,114,114,attentional-mouselab,35,271677,8
mouselab,False,[],"[[4, 6, 7, 2, 4], [3, 5, 4, 5, 5], [7, 3, 6, 4, 7], [5, 2, 6, 3, 7], [5, 5, 7, 8, 6]]","[[1, 3, 3, 1, 3], [3, 3, 3, 3, 3], [3, 3, 3, 3, 3], [1, 1, 3, 3, 3], [3, 3, 1, 1, 3]]","[11, 4, 10, 3, 2]",18,32,0,0.05,0.05,0.0,[],0,extreme,5,5,719,0,151,151,attentional-mouselab,36,273289,8
mouselab,True,"[0, 0, 0, 7, 6, 2, 3, 23, 19]","[[2, 5, 9, 5, 3], [3, 7, 5, 3, 4], [4, 5, 6, 5, 3], [1, 4, 7, 4, 4], [4, 3, 5, 5, 4]]","[[0, 3, 0, 0, 3], [3, 0, 0, 3, 3], [3, 3, 3, 3, 3], [3, 3, 3, 3, 0], [3, 3, 3, 0, 3]]","[2, 2, 10, 10, 6]",16,1,2,0.063,0.06,0.003,"[0, 7, 6, 2, 3, 23, 19]",7,random,5,5,16715,9,188,179,attentional-mouselab,4,118047,9
mouselab,True,"[2, 7, 19, 21, 11]","[[2, 4, 4, 2, 6], [3, 7, 6, 8, 7], [6, 0, 8, 6, 3], [7, 6, 6, 8, 1], [8, 8, 5, 4, 7]]","[[1, 3, 0, 3, 3], [3, 3, 0, 3, 3], [3, 0, 3, 3, 3], [3, 3, 3, 3, 0], [3, 0, 3, 3, 3]]","[2, 13, 6, 2, 7]",16,2,3,0.063,0.06133333333333334,0.0016666666666666668,"[2, 7, 19, 21, 11]",5,extreme,5,5,9386,5,188,183,attentional-mouselab,5,129312,9
mouselab,False,"[6, 7, 2, 23, 3]","[[2, 5, 9, 5, 3], [3, 7, 5, 3, 4], [4, 5, 6, 5, 3], [1, 4, 7, 4, 4], [4, 3, 5, 5, 4]]","[[3, 3, 0, 0, 3], [3, 0, 0, 3, 3], [3, 3, 3, 3, 3], [3, 3, 3, 3, 1], [3, 3, 3, 0, 3]]","[3, 13, 9, 3, 2]",20,3,2,0.059,0.05733333333333333,0.0016666666666666668,"[6, 7, 2, 23, 3]",5,random,5,5,7211,5,177,172,attentional-mouselab,7,139339,9
mouselab,False,"[2, 7, 11, 21]","[[2, 4, 4, 2, 6], [3, 7, 6, 8, 7], [6, 0, 8, 6, 3], [7, 6, 6, 8, 1], [8, 8, 5, 4, 7]]","[[1, 3, 0, 3, 3], [3, 3, 0, 3, 3], [3, 0, 3, 3, 3], [3, 3, 3, 3, 1], [3, 0, 3, 3, 3]]","[9, 9, 6, 4, 2]",12,4,2,0.057,0.05566666666666667,0.0013333333333333333,"[2, 7, 11, 21]",4,extreme,5,5,5984,4,172,168,attentional-mouselab,8,149698,9
mouselab,False,"[8, 18]","[[5, 7, 5, 4, 3], [6, 5, 2, 4, 5], [6, 4, 3, 8, 5], [6, 5, 4, 8, 5], [6, 3, 3, 7, 6]]","[[3, 1, 3, 3, 1], [3, 3, 1, 0, 3], [3, 3, 3, 3, 3], [1, 3, 3, 0, 3], [3, 3, 3, 3, 3]]","[3, 12, 2, 12, 1]",24,5,3,0.06,0.05933333333333333,0.0006666666666666666,"[8, 18]",2,greedy,5,5,9031,2,179,177,attentional-mouselab,9,162526,9
mouselab,False,"[8, 13]","[[4, 5, 5, 6, 3], [5, 3, 2, 7, 4], [6, 5, 6, 7, 6], [6, 7, 5, 3, 7], [5, 3, 3, 3, 5]]","[[3, 3, 3, 3, 3], [3, 3, 3, 0, 3], [1, 3, 1, 0, 1], [3, 1, 3, 3, 3], [3, 3, 3, 3, 3]]","[19, 5, 1, 4, 1]",26,6,3,0.057,0.05633333333333333,0.0006666666666666666,"[8, 13]",2,greedy,5,5,3186,2,171,169,attentional-mouselab,10,167213,9
mouselab,False,"[0, 10]","[[3, 5, 5, 6, 5], [4, 6, 6, 3, 1], [3, 4, 4, 3, 3], [4, 6, 4, 9, 6], [7, 7, 5, 5, 6]]","[[0, 3, 3, 3, 3], [3, 1, 3, 1, 1], [0, 3, 3, 3, 3], [3, 3, 3, 1, 3], [3, 3, 3, 3, 3]]","[9, 3, 1, 13, 4]",20,7,2,0.046,0.04533333333333333,0.0006666666666666666,"[0, 10]",2,extreme,5,5,6927,2,139,137,attentional-mouselab,11,175304,9
mouselab,False,"[19, 24, 12, 22]","[[3, 2, 5, 4, 7], [4, 5, 6, 6, 5], [2, 1, 6, 10, 6], [6, 5, 4, 7, 4], [6, 4, 4, 4, 8]]","[[3, 3, 3, 3, 3], [3, 3, 3, 3, 3], [3, 1, 0, 1, 3], [3, 3, 3, 3, 0], [3, 3, 0, 3, 0]]","[4, 5, 15, 3, 3]",18,8,4,0.06,0.058666666666666666,0.0013333333333333333,"[19, 24, 12, 22]",4,greedy,5,5,4355,4,179,175,attentional-mouselab,12,181342,9
mouselab,False,"[8, 13, 18]","[[5, 7, 7, 6, 6], [7, 6, 5, 6, 4], [7, 8, 5, 8, 6], [2, 4, 5, 5, 3], [7, 1, 6, 7, 5]]","[[3, 3, 3, 3, 3], [3, 3, 3, 0, 3], [3, 1, 3, 0, 3], [1, 3, 3, 0, 3], [3, 1, 3, 3, 3]]","[9, 6, 9, 5, 1]",12,9,3,0.065,0.064,0.001,"[8, 13, 18]",3,extreme,5,5,3201,3,194,191,attentional-mouselab,13,186835,9
mouselab,False,"[7, 12, 1, 21]","[[4, 3, 5, 3, 6], [9, 3, 8, 6, 7], [4, 6, 1, 4, 5], [6, 6, 4, 5, 6], [6, 4, 4, 7, 3]]","[[3, 0, 3, 1, 3], [1, 3, 0, 3, 3], [3, 3, 0, 3, 3], [3, 3, 3, 3, 3], [3, 0, 3, 3, 3]]","[12, 5, 4, 8, 1]",16,10,0,0.054,0.05266666666666667,0.0013333333333333333,"[7, 12, 1, 21]",4,extreme,5,5,12591,4,163,159,attentional-mouselab,14,200947,9
mouselab,False,"[11, 21]","[[7, 6, 7, 6, 4], [6, 10, 10, 3, 5], [5, 6, 8, 2, 4], [7, 4, 5, 2, 4], [5, 6, 4, 4, 2]]","[[3, 3, 3, 1, 3], [3, 3, 3, 3, 1], [3, 0, 1, 3, 3], [3, 3, 3, 3, 3], [1, 0, 3, 3, 3]]","[3, 10, 5, 6, 6]",8,11,1,0.069,0.06833333333333334,0.0006666666666666666,"[11, 21]",2,random,5,5,3326,2,208,206,attentional-mouselab,15,205966,9
mouselab,False,"[13, 18, 6, 21]","[[6, 5, 7, 3, 5], [4, 5, 4, 7, 2], [4, 7, 4, 4, 5], [5, 6, 8, 2, 5], [5, 8, 5, 5, 4]]","[[3, 3, 3, 3, 3], [3, 0, 3, 3, 1], [3, 3, 3, 0, 3], [3, 3, 1, 0, 3], [3, 0, 3, 3, 3]]","[12, 3, 9, 5, 1]",18,12,1,0.059,0.057666666666666665,0.0013333333333333333,"[13, 18, 6, 21]",4,extreme,5,5,7459,4,176,172,attentional-mouselab,16,214552,9
mouselab,False,"[7, 12, 1, 11, 21]","[[6, 6, 6, 7, 3], [3, 5, 8, 5, 5], [6, 1, 5, 5, 4], [5, 3, 5, 4, 2], [5, 2, 4, 5, 2]]","[[3, 0, 3, 3, 3], [3, 3, 0, 3, 3], [3, 0, 0, 3, 3], [3, 3, 3, 3, 1], [3, 0, 3, 3, 3]]","[5, 11, 4, 8, 2]",14,13,2,0.062,0.060333333333333336,0.0016666666666666668,"[7, 12, 1, 11, 21]",5,extreme,5,5,5285,5,186,181,attentional-mouselab,17,220986,9
mouselab,False,"[14, 19, 15, 20]","[[6, 6, 6, 4, 3], [7, 3, 4, 3, 6], [4, 4, 7, 3, 0], [6, 6, 4, 5, 5], [9, 4, 9, 4, 4]]","[[3, 3, 3, 3, 3], [3, 3, 3, 3, 3], [3, 3, 3, 3, 0], [0, 3, 3, 1, 0], [0, 3, 1, 3, 3]]","[2, 3, 9, 3, 13]",20,14,0,0.068,0.06666666666666667,0.0013333333333333333,"[14, 19, 15, 20]",4,extreme,5,5,3934,4,204,200,attentional-mouselab,18,226185,9
mouselab,False,"[7, 22]","[[2, 5, 4, 6, 2], [6, 5, 8, 4, 5], [5, 3, 6, 5, 7], [3, 0, 8, 7, 7], [5, 5, 3, 5, 7]]","[[3, 3, 3, 3, 3], [3, 3, 0, 3, 1], [3, 3, 3, 1, 3], [3, 3, 3, 3, 3], [1, 1, 0, 3, 3]]","[1, 4, 11, 13, 1]",24,15,2,0.07,0.06933333333333334,0.0006666666666666666,"[7, 22]",2,random,5,5,3028,2,209,207,attentional-mouselab,19,230453,9
mouselab,False,"[16, 21]","[[1, 5, 6, 5, 5], [5, 7, 7, 2, 4], [8, 4, 5, 5, 2], [2, 9, 6, 4, 5], [9, 4, 6, 3, 7]]","[[1, 3, 3, 3, 3], [3, 3, 3, 3, 3], [1, 3, 3, 3, 3], [3, 0, 1, 3, 3], [1, 0, 3, 3, 3]]","[9, 3, 7, 3, 8]",12,16,1,0.051,0.05033333333333333,0.0006666666666666666,"[16, 21]",2,extreme,5,5,3892,2,153,151,attentional-mouselab,20,235404,9
mouselab,False,"[5, 0]","[[5, 6, 8, 9, 8], [6, 4, 4, 3, 5], [8, 9, 6, 2, 2], [5, 5, 6, 8, 5], [4, 5, 3, 5, 8]]","[[0, 3, 1, 3, 3], [0, 3, 3, 3, 3], [3, 3, 3, 3, 3], [3, 1, 1, 3, 3], [3, 3, 3, 1, 3]]","[4, 7, 9, 2, 8]",12,17,0,0.059,0.05833333333333333,0.0006666666666666666,"[5, 0]",2,random,5,5,2278,2,176,174,attentional-mouselab,21,239136,9
mouselab,False,"[10, 5]","[[4, 2, 5, 9, 6], [6, 7, 6, 5, 6], [8, 8, 6, 7, 4], [6, 7, 7, 5, 5], [4, 3, 6, 4, 6]]","[[3, 3, 3, 3, 1], [0, 1, 3, 3, 3], [0, 1, 3, 1, 3], [3, 3, 3, 3, 3], [3, 3, 3, 3, 3]]","[1, 1, 14, 3, 11]",26,18,0,0.061,0.06033333333333333,0.0006666666666666666,"[10, 5]",2,greedy,5,5,2731,2,184,182,attentional-mouselab,22,242767,9
mouselab,False,"[12, 17]","[[5, 3, 7, 4, 4], [7, 4, 6, 2, 4], [8, 5, 6, 5, 3], [7, 3, 5, 6, 3], [5, 6, 6, 5, 6]]","[[1, 3, 3, 1, 3], [3, 3, 3, 3, 3], [3, 3, 0, 3, 3], [3, 1, 0, 3, 3], [3, 3, 3, 1, 3]]","[4, 3, 15, 4, 4]",18,19,2,0.06,0.05933333333333333,0.0006666666666666666,"[12, 17]",2,random,5,5,1934,2,180,178,attentional-mouselab,23,245816,9
mouselab,False,"[11, 1]","[[6, 8, 4, 7, 3], [3, 5, 3, 7, 5], [6, 6, 3, 6, 5], [5, 7, 5, 4, 6], [2, 6, 6, 4, 5]]","[[3, 0, 3, 1, 3], [3, 3, 3, 3, 3], [3, 0, 1, 3, 3], [3, 3, 3, 3, 3], [1, 3, 3, 1, 3]]","[2, 6, 4, 11, 7]",12,20,1,0.063,0.06233333333333333,0.0006666666666666666,"[11, 1]",2,greedy,5,5,2536,2,189,187,attentional-mouselab,24,249230,9
mouselab,False,"[11, 6]","[[5, 5, 2, 6, 3], [4, 4, 8, 4, 6], [4, 3, 3, 4, 6], [2, 6, 5, 5, 7], [8, 6, 5, 4, 4]]","[[3, 3, 3, 3, 3], [3, 0, 1, 3, 3], [3, 0, 1, 3, 3], [3, 3, 3, 3, 1], [1, 3, 3, 3, 3]]","[1, 9, 5, 13, 2]",20,21,2,0.055,0.05433333333333333,0.0006666666666666666,"[11, 6]",2,greedy,5,5,2334,2,164,162,attentional-mouselab,25,252846,9
mouselab,False,"[15, 5]","[[7, 4, 4, 4, 5], [4, 1, 4, 5, 5], [3, 4, 2, 4, 7], [7, 6, 6, 8, 3], [3, 5, 5, 5, 5]]","[[3, 1, 3, 3, 3], [0, 3, 1, 3, 3], [3, 3, 3, 3, 3], [0, 1, 3, 1, 3], [3, 3, 3, 3, 3]]","[1, 7, 1, 16, 5]",22,22,0,0.055,0.05433333333333333,0.0006666666666666666,"[15, 5]",2,greedy,5,5,2393,2,165,163,attentional-mouselab,26,256113,9
mouselab,False,"[21, 1]","[[4, 5, 3, 3, 7], [5, 8, 7, 4, 6], [7, 4, 5, 4, 5], [5, 4, 3, 6, 5], [8, 4, 5, 5, 5]]","[[3, 0, 1, 3, 3], [3, 3, 3, 3, 3], [1, 3, 3, 1, 3], [3, 3, 3, 3, 1], [3, 0, 3, 3, 3]]","[12, 3, 4, 10, 1]",20,23,1,0.048,0.04733333333333333,0.0006666666666666666,"[21, 1]",2,random,5,5,4786,2,144,142,attentional-mouselab,27,261790,9
