type,is_practice,click_values,payoff_matrix,cost_matrix,weights,weights_deviation,trial_num,selected_option,gross_earnings,net_earnings,click_cost,uncovered_values,num_values_revealed,nudge_type,num_baskets,num_features,reaction_time,points_click_cost,points_action_utility,points_metalevel_reward,trial_type,trial_index,time_elapsed,participant_id
mouselab,True,[],"[[4, 4, 6, 6, 4], [5, 4, 2, 4, 4], [6, 7, 6, 7, 6], [4, 7, 5, 6, 8], [4, 3, 6, 5, 6]]","[[2, 0, 0, 2, 0], [2, 2, 2, 2, 2], [2, 2, 2, 0, 2], [0, 2, 2, 2, 2], [2, 2, 2, 0, 2]]","[3, 1, 17, 2, 7]",24,1,3,0.063,0.063,0.0,[],0,random,5,5,4883,0,188,188,attentional-mouselab,4,135939,0
mouselab,True,[],"[[6, 6, 5, 5, 5], [7, 6, 4, 5, 8], [3, 5, 8, 4, 5], [5, 4, 2, 5, 6], [6, 5, 8, 6, 7]]","[[2, 2, 2, 2, 2], [2, 2, 0, 0, 2], [2, 0, 2, 2, 2], [2, 2, 2, 0, 2], [0, 2, 2, 2, 0]]","[2, 3, 9, 7, 9]",14,2,4,0.061,0.061,0.0,[],0,random,5,5,3901,0,184,184,attentional-mouselab,5,142116,0
mouselab,False,[],"[[3, 3, 4, 5, 8], [6, 4, 5, 5, 5], [7, 3, 6, 0, 4], [5, 4, 3, 3, 6], [7, 3, 6, 3, 5]]","[[2, 0, 0, 2, 2], [0, 2, 2, 2, 2], [0, 2, 2, 2, 2], [2, 2, 2, 2, 0], [0, 2, 2, 2, 2]]","[8, 4, 8, 3, 7]",10,3,0,0.056,0.056,0.0,[],0,random,5,5,2348,0,168,168,attentional-mouselab,7,147686,0
mouselab,False,[],"[[3, 4, 5, 4, 6], [5, 5, 5, 7, 5], [2, 3, 4, 2, 5], [4, 7, 3, 5, 8], [3, 5, 3, 3, 7]]","[[2, 2, 2, 2, 0], [2, 0, 2, 2, 0], [2, 0, 2, 2, 2], [2, 2, 2, 2, 0], [2, 2, 0, 2, 2]]","[3, 11, 2, 4, 10]",18,4,4,0.062,0.062,0.0,[],0,random,5,5,2648,0,185,185,attentional-mouselab,8,152156,0
mouselab,False,[],"[[4, 5, 2, 6, 1], [5, 7, 7, 3, 5], [7, 4, 9, 3, 4], [4, 6, 4, 5, 8], [4, 7, 5, 3, 6]]","[[2, 2, 2, 2, 2], [2, 0, 2, 2, 2], [0, 2, 0, 2, 2], [2, 2, 2, 2, 0], [2, 2, 0, 0, 2]]","[8, 6, 6, 3, 7]",6,5,2,0.053,0.053,0.0,[],0,greedy,5,5,2571,0,159,159,attentional-mouselab,9,156425,0
mouselab,False,[],"[[8, 6, 4, 7, 7], [5, 4, 5, 5, 4], [6, 6, 5, 4, 4], [6, 6, 4, 7, 5], [2, 4, 5, 5, 5]]","[[0, 2, 0, 0, 0], [2, 2, 2, 2, 2], [2, 0, 2, 2, 2], [2, 2, 0, 2, 2], [2, 2, 2, 2, 2]]","[5, 6, 7, 3, 9]",8,6,3,0.053,0.053,0.0,[],0,greedy,5,5,4499,0,159,159,attentional-mouselab,10,162582,0
mouselab,False,[],"[[5, 4, 3, 5, 7], [7, 8, 5, 4, 4], [7, 7, 5, 4, 8], [3, 4, 3, 5, 7], [9, 2, 6, 5, 1]]","[[2, 2, 2, 2, 2], [0, 2, 0, 2, 2], [0, 2, 2, 2, 0], [2, 2, 2, 2, 2], [0, 2, 2, 2, 0]]","[2, 2, 23, 2, 1]",34,7,0,0.067,0.067,0.0,[],0,random,5,5,2251,0,200,200,attentional-mouselab,11,166889,0
mouselab,False,[],"[[5, 7, 4, 3, 8], [9, 6, 5, 7, 8], [9, 5, 5, 5, 4], [7, 6, 4, 6, 0], [1, 3, 5, 3, 7]]","[[2, 2, 2, 2, 2], [0, 0, 2, 0, 0], [2, 2, 0, 2, 2], [2, 2, 2, 2, 2], [2, 2, 2, 2, 0]]","[2, 11, 14, 2, 1]",26,8,4,0.056,0.056,0.0,[],0,greedy,5,5,2986,0,167,167,attentional-mouselab,12,171803,0
mouselab,False,[],"[[6, 5, 5, 3, 6], [5, 5, 3, 5, 5], [6, 5, 5, 3, 6], [6, 8, 3, 4, 5], [7, 5, 0, 4, 6]]","[[2, 2, 2, 0, 2], [2, 2, 0, 2, 0], [2, 0, 2, 2, 2], [2, 0, 2, 2, 2], [2, 2, 0, 2, 2]]","[3, 2, 4, 6, 15]",18,9,0,0.064,0.064,0.0,[],0,extreme,5,5,2725,0,193,193,attentional-mouselab,13,175648,0
mouselab,False,[],"[[6, 2, 3, 3, 6], [5, 8, 4, 5, 8], [5, 5, 4, 5, 7], [5, 5, 4, 9, 8], [4, 1, 5, 4, 3]]","[[2, 0, 2, 2, 2], [2, 0, 0, 2, 2], [2, 2, 2, 2, 2], [2, 2, 2, 0, 0], [0, 2, 2, 2, 2]]","[2, 10, 1, 7, 10]",18,10,3,0.055,0.055,0.0,[],0,random,5,5,3188,0,164,164,attentional-mouselab,14,180620,0
mouselab,False,[],"[[5, 4, 5, 6, 6], [5, 4, 8, 3, 6], [4, 6, 2, 2, 4], [4, 8, 6, 5, 7], [6, 1, 3, 6, 2]]","[[2, 2, 0, 2, 2], [2, 2, 0, 2, 0], [2, 2, 2, 2, 2], [2, 2, 2, 0, 2], [2, 2, 0, 2, 0]]","[1, 10, 15, 3, 1]",26,11,1,0.053,0.053,0.0,[],0,random,5,5,5856,0,159,159,attentional-mouselab,15,187855,0
mouselab,False,[],"[[5, 4, 3, 5, 4], [6, 3, 6, 7, 5], [2, 3, 3, 3, 7], [7, 2, 8, 2, 5], [7, 5, 6, 6, 6]]","[[2, 2, 2, 2, 2], [2, 2, 2, 0, 2], [0, 2, 2, 2, 0], [2, 0, 0, 2, 2], [2, 2, 2, 2, 0]]","[7, 2, 2, 17, 2]",24,12,2,0.062,0.062,0.0,[],0,extreme,5,5,2639,0,187,187,attentional-mouselab,16,191680,0
mouselab,False,[],"[[4, 5, 5, 6, 3], [4, 6, 3, 6, 5], [4, 7, 5, 5, 4], [5, 5, 4, 3, 4], [5, 2, 4, 6, 7]]","[[2, 2, 2, 2, 0], [2, 2, 0, 2, 2], [2, 2, 0, 2, 2], [2, 0, 2, 2, 2], [0, 0, 2, 2, 2]]","[3, 11, 5, 6, 5]",10,13,3,0.052,0.052,0.0,[],0,extreme,5,5,2254,0,157,157,attentional-mouselab,17,195544,0
mouselab,False,[],"[[4, 6, 3, 5, 6], [5, 4, 4, 7, 8], [6, 5, 2, 3, 5], [2, 8, 2, 7, 5], [3, 7, 6, 4, 7]]","[[2, 2, 2, 2, 2], [2, 2, 2, 0, 0], [2, 2, 0, 2, 2], [0, 2, 2, 2, 2], [0, 0, 2, 2, 2]]","[7, 8, 2, 11, 2]",16,14,4,0.062,0.062,0.0,[],0,greedy,5,5,2812,0,185,185,attentional-mouselab,18,199774,0
mouselab,False,[],"[[4, 4, 3, 4, 3], [6, 5, 4, 5, 4], [5, 7, 2, 4, 5], [4, 7, 6, 4, 4], [7, 4, 3, 6, 6]]","[[2, 0, 0, 2, 2], [2, 2, 0, 2, 2], [2, 2, 0, 2, 2], [2, 0, 2, 2, 2], [0, 2, 2, 2, 2]]","[6, 6, 10, 5, 3]",8,15,4,0.043,0.043,0.0,[],0,greedy,5,5,3071,0,130,130,attentional-mouselab,19,204244,0
mouselab,False,[],"[[5, 2, 6, 5, 6], [6, 1, 3, 6, 5], [4, 5, 3, 5, 5], [4, 8, 6, 3, 6], [5, 4, 4, 3, 6]]","[[2, 0, 2, 2, 0], [2, 0, 2, 2, 2], [2, 2, 2, 0, 2], [2, 0, 2, 0, 2], [2, 2, 2, 2, 2]]","[6, 3, 6, 5, 10]",8,16,0,0.047,0.047,0.0,[],0,extreme,5,5,1406,0,142,142,attentional-mouselab,20,207048,0
mouselab,False,[],"[[8, 3, 8, 5, 5], [1, 3, 5, 6, 8], [6, 6, 8, 5, 5], [6, 4, 4, 4, 4], [6, 4, 5, 4, 4]]","[[0, 0, 0, 2, 2], [0, 2, 2, 2, 2], [2, 2, 2, 2, 2], [2, 0, 2, 2, 2], [2, 2, 2, 2, 0]]","[1, 6, 7, 14, 2]",18,17,3,0.047,0.047,0.0,[],0,extreme,5,5,2263,0,140,140,attentional-mouselab,21,210815,0
mouselab,True,[],"[[4, 3, 4, 0, 5], [3, 8, 6, 4, 4], [2, 5, 6, 4, 7], [5, 6, 5, 5, 5], [3, 5, 5, 6, 7]]","[[2, 2, 2, 2, 0], [2, 2, 2, 2, 0], [2, 0, 2, 2, 2], [2, 2, 0, 2, 2], [0, 2, 2, 2, 0]]","[1, 7, 11, 1, 10]",20,1,4,0.062,0.062,0.0,[],0,random,5,5,6719,0,185,185,attentional-mouselab,4,136904,1
mouselab,True,[],"[[6, 6, 3, 5, 5], [5, 5, 6, 7, 1], [4, 2, 8, 7, 4], [5, 6, 6, 5, 6], [7, 4, 6, 6, 5]]","[[2, 2, 0, 2, 2], [2, 2, 2, 2, 2], [2, 0, 0, 2, 2], [2, 2, 0, 0, 2], [2, 2, 2, 0, 2]]","[10, 8, 9, 1, 2]",18,2,2,0.056,0.056,0.0,[],0,random,5,5,6015,0,168,168,attentional-mouselab,5,148275,1
mouselab,False,[],"[[5, 5, 5, 6, 6], [7, 10, 4, 4, 6], [5, 4, 5, 6, 8], [4, 3, 4, 4, 5], [4, 4, 8, 3, 9]]","[[2, 2, 2, 2, 0], [0, 0, 2, 2, 0], [2, 2, 2, 2, 2], [2, 2, 2, 2, 2], [2, 2, 0, 2, 0]]","[7, 2, 2, 12, 7]",16,3,1,0.042,0.042,0.0,[],0,greedy,5,5,1664,0,127,127,attentional-mouselab,7,153638,1
mouselab,False,[],"[[5, 2, 7, 8, 5], [5, 6, 4, 5, 9], [2, 8, 1, 5, 7], [3, 7, 5, 6, 5], [9, 7, 5, 6, 8]]","[[0, 2, 2, 2, 2], [2, 2, 0, 2, 2], [2, 2, 2, 2, 0], [2, 2, 2, 2, 2], [2, 0, 2, 0, 0]]","[13, 4, 2, 8, 3]",18,4,0,0.047,0.047,0.0,[],0,random,5,5,2794,0,140,140,attentional-mouselab,8,158152,1
mouselab,False,[],"[[7, 3, 4, 3, 7], [6, 3, 6, 9, 6], [1, 4, 3, 3, 6], [6, 5, 5, 6, 6], [7, 6, 6, 3, 9]]","[[0, 2, 2, 2, 2], [0, 2, 2, 0, 2], [0, 2, 2, 0, 2], [2, 2, 2, 2, 2], [2, 2, 2, 2, 0]]","[5, 10, 6, 4, 5]",8,5,2,0.049,0.049,0.0,[],0,extreme,5,5,1793,0,148,148,attentional-mouselab,9,161154,1
mouselab,False,[],"[[6, 6, 7, 7, 2], [4, 3, 6, 4, 6], [3, 0, 5, 6, 5], [0, 7, 5, 1, 8], [5, 10, 5, 3, 7]]","[[0, 2, 2, 2, 2], [2, 2, 2, 2, 2], [2, 0, 2, 2, 2], [0, 2, 2, 0, 0], [2, 0, 2, 2, 2]]","[9, 4, 12, 4, 1]",18,6,4,0.047,0.047,0.0,[],0,extreme,5,5,3467,0,141,141,attentional-mouselab,10,165908,1
mouselab,False,[],"[[3, 5, 5, 6, 6], [7, 4, 6, 5, 3], [4, 4, 5, 5, 4], [6, 1, 6, 3, 5], [7, 4, 7, 1, 7]]","[[2, 2, 2, 0, 2], [2, 2, 2, 2, 2], [2, 0, 0, 2, 2], [2, 2, 2, 2, 2], [0, 2, 0, 2, 0]]","[1, 2, 16, 4, 7]",22,7,2,0.057,0.057,0.0,[],0,greedy,5,5,3141,0,170,170,attentional-mouselab,11,170365,1
mouselab,False,[],"[[4, 2, 6, 3, 5], [2, 6, 2, 7, 4], [4, 1, 3, 6, 8], [4, 5, 5, 6, 5], [1, 7, 6, 6, 8]]","[[2, 0, 2, 2, 0], [2, 2, 2, 2, 0], [2, 0, 2, 2, 2], [2, 2, 2, 0, 2], [0, 2, 2, 2, 2]]","[1, 2, 7, 8, 12]",18,8,2,0.048,0.048,0.0,[],0,extreme,5,5,1692,0,143,143,attentional-mouselab,12,173512,1
mouselab,False,[],"[[10, 6, 6, 8, 4], [4, 5, 3, 4, 7], [5, 3, 5, 8, 4], [3, 4, 8, 6, 6], [3, 5, 5, 5, 3]]","[[0, 2, 2, 0, 2], [2, 2, 2, 2, 2], [2, 2, 2, 0, 0], [2, 2, 2, 2, 2], [2, 2, 2, 0, 0]]","[9, 10, 8, 1, 2]",18,9,0,0.06,0.06,0.0,[],0,extreme,5,5,1770,0,179,179,attentional-mouselab,13,176848,1
mouselab,False,[],"[[4, 4, 7, 7, 8], [1, 5, 6, 5, 2], [5, 5, 6, 7, 4], [7, 5, 8, 5, 3], [4, 8, 3, 5, 5]]","[[2, 2, 2, 2, 2], [0, 0, 0, 2, 2], [2, 2, 2, 2, 2], [2, 2, 0, 0, 2], [0, 2, 2, 2, 2]]","[5, 7, 2, 9, 7]",10,10,4,0.041,0.041,0.0,[],0,random,5,5,1936,0,124,124,attentional-mouselab,14,181542,1
mouselab,False,[],"[[3, 5, 7, 6, 7], [4, 9, 5, 5, 7], [5, 3, 6, 6, 9], [6, 3, 6, 4, 5], [4, 1, 6, 4, 5]]","[[2, 0, 2, 2, 2], [0, 2, 0, 0, 2], [2, 2, 2, 2, 0], [2, 0, 2, 2, 2], [2, 2, 2, 2, 2]]","[11, 5, 8, 4, 2]",14,11,4,0.071,0.071,0.0,[],0,random,5,5,2159,0,214,214,attentional-mouselab,15,184980,1
mouselab,False,[],"[[8, 6, 7, 6, 5], [5, 4, 5, 4, 5], [7, 7, 4, 5, 7], [4, 4, 6, 5, 7], [5, 4, 5, 5, 4]]","[[0, 2, 0, 2, 2], [2, 2, 2, 2, 2], [0, 2, 2, 2, 2], [0, 2, 2, 2, 2], [0, 2, 2, 2, 0]]","[3, 2, 2, 19, 4]",26,12,0,0.048,0.048,0.0,[],0,extreme,5,5,1579,0,144,144,attentional-mouselab,16,187477,1
mouselab,False,[],"[[4, 3, 8, 3, 4], [3, 7, 5, 7, 5], [7, 4, 5, 5, 4], [6, 5, 6, 6, 9], [4, 6, 6, 3, 3]]","[[2, 2, 2, 0, 2], [2, 2, 2, 2, 2], [2, 0, 2, 0, 2], [0, 2, 2, 0, 0], [2, 2, 2, 2, 2]]","[6, 9, 4, 2, 9]",12,13,4,0.043,0.043,0.0,[],0,greedy,5,5,1884,0,130,130,attentional-mouselab,17,190344,1
mouselab,False,[],"[[3, 4, 3, 5, 7], [8, 7, 4, 6, 3], [5, 5, 5, 3, 8], [7, 5, 10, 7, 7], [4, 5, 3, 7, 4]]","[[2, 2, 0, 2, 2], [2, 2, 2, 2, 2], [2, 2, 0, 0, 2], [2, 0, 2, 2, 2], [0, 2, 2, 0, 2]]","[11, 10, 4, 4, 1]",18,14,4,0.057,0.057,0.0,[],0,random,5,5,1731,0,171,171,attentional-mouselab,18,193334,1
mouselab,False,[],"[[5, 6, 2, 6, 8], [8, 4, 6, 6, 7], [6, 2, 4, 5, 6], [2, 7, 4, 6, 3], [6, 0, 7, 8, 4]]","[[0, 2, 2, 2, 0], [0, 0, 2, 2, 2], [0, 2, 2, 2, 2], [2, 2, 0, 2, 2], [2, 2, 2, 2, 2]]","[4, 3, 4, 12, 7]",14,15,0,0.045,0.045,0.0,[],0,random,5,5,1780,0,134,134,attentional-mouselab,19,196070,1
mouselab,False,[],"[[7, 7, 7, 8, 4], [4, 6, 5, 7, 5], [4, 6, 1, 9, 3], [3, 6, 5, 4, 6], [4, 4, 7, 8, 3]]","[[0, 0, 0, 0, 0], [2, 2, 2, 2, 2], [2, 2, 2, 2, 2], [2, 2, 2, 2, 2], [2, 2, 2, 0, 2]]","[3, 5, 3, 12, 7]",14,16,3,0.063,0.063,0.0,[],0,greedy,5,5,2216,0,190,190,attentional-mouselab,20,199685,1
mouselab,False,[],"[[4, 5, 3, 5, 9], [6, 5, 8, 4, 4], [3, 4, 4, 4, 5], [3, 4, 3, 6, 4], [3, 8, 7, 3, 6]]","[[2, 2, 2, 2, 0], [0, 2, 0, 0, 2], [0, 2, 2, 2, 2], [2, 2, 2, 2, 2], [2, 0, 2, 2, 2]]","[1, 7, 9, 2, 11]",18,17,4,0.052,0.052,0.0,[],0,greedy,5,5,2187,0,156,156,attentional-mouselab,21,202915,1
mouselab,True,"[5, 13, 18, 19, 18, 19, 13, 5, 0, 0, 2, 2, 6, 6, 11, 11, 12, 12, 17, 17, 23, 23, 24, 24, 14, 14, 9, 9, 8, 4, 4, 4, 8, 8, 10, 10, 15, 15, 20, 20, 20, 20]","[[4, 4, 6, 3, 7], [4, 3, 7, 8, 9], [4, 4, 5, 6, 5], [5, 6, 4, 6, 6], [5, 7, 3, 6, 3]]","[[0, 0, 0, 0, 0], [0, 0, 0, 0, 0], [0, 0, 0, 0, 0], [0, 0, 0, 0, 0], [0, 0, 0, 0, 0]]","[3, 1, 17, 1, 8]",26,1,0,0.043,0.03033333333333333,0.012666666666666666,"[18, 19, 13, 5, 0, 2, 6, 11, 12, 17, 23, 24, 14, 9, 4, 8, 10, 15, 20]",19,random,5,5,28360,38,129,91,attentional-mouselab,4,127726,2
mouselab,True,[],"[[5, 7, 8, 4, 7], [4, 4, 5, 5, 5], [6, 7, 5, 8, 7], [6, 1, 5, 5, 4], [6, 4, 7, 8, 5]]","[[2, 2, 2, 2, 0], [2, 2, 2, 2, 0], [0, 2, 2, 2, 2], [2, 2, 0, 2, 0], [0, 2, 2, 2, 2]]","[6, 4, 6, 3, 11]",10,2,4,0.057,0.057,0.0,[],0,random,5,5,5238,0,171,171,attentional-mouselab,5,139575,2
mouselab,False,"[10, 10]","[[6, 4, 8, 2, 4], [3, 4, 4, 4, 7], [6, 3, 2, 6, 3], [3, 5, 7, 3, 5], [3, 7, 4, 5, 6]]","[[0, 2, 2, 2, 2], [2, 2, 2, 2, 2], [0, 2, 0, 0, 0], [2, 2, 0, 0, 2], [2, 2, 2, 2, 2]]","[5, 13, 8, 3, 1]",18,3,0,0.043,0.04233333333333333,0.0006666666666666666,[10],1,random,5,5,3444,2,129,127,attentional-mouselab,7,146996,2
mouselab,False,[],"[[4, 5, 6, 4, 4], [5, 3, 5, 4, 7], [5, 4, 8, 6, 1], [7, 7, 2, 6, 5], [1, 4, 4, 2, 3]]","[[2, 2, 0, 2, 0], [2, 2, 2, 2, 2], [2, 2, 2, 2, 0], [0, 0, 2, 0, 2], [2, 2, 2, 2, 2]]","[11, 2, 3, 4, 10]",18,4,1,0.047,0.047,0.0,[],0,greedy,5,5,1331,0,141,141,attentional-mouselab,8,149387,2
mouselab,False,[],"[[6, 7, 7, 5, 3], [6, 2, 4, 4, 4], [6, 4, 3, 5, 4], [6, 7, 8, 4, 7], [3, 3, 2, 4, 7]]","[[0, 2, 2, 0, 2], [2, 2, 2, 2, 2], [0, 0, 0, 2, 2], [2, 2, 2, 2, 2], [0, 2, 2, 2, 2]]","[6, 1, 2, 14, 7]",18,5,0,0.053,0.053,0.0,[],0,random,5,5,895,0,159,159,attentional-mouselab,9,151184,2
mouselab,False,[],"[[6, 3, 6, 5, 4], [4, 5, 7, 5, 3], [6, 7, 6, 6, 6], [6, 2, 6, 4, 8], [3, 5, 5, 5, 6]]","[[2, 2, 2, 2, 0], [0, 2, 2, 2, 2], [2, 0, 0, 0, 2], [0, 2, 2, 2, 2], [2, 2, 2, 2, 2]]","[4, 4, 6, 9, 7]",8,6,1,0.042,0.042,0.0,[],0,greedy,5,5,859,0,127,127,attentional-mouselab,10,152748,2
mouselab,False,[],"[[6, 6, 4, 6, 6], [7, 5, 5, 6, 4], [6, 4, 5, 4, 4], [6, 3, 6, 4, 4], [7, 7, 6, 6, 3]]","[[2, 2, 2, 2, 2], [2, 2, 2, 0, 2], [2, 2, 2, 2, 2], [0, 2, 2, 2, 2], [0, 0, 0, 0, 2]]","[1, 5, 12, 3, 9]",18,7,2,0.054,0.054,0.0,[],0,greedy,5,5,528,0,161,161,attentional-mouselab,11,154310,2
mouselab,False,[],"[[4, 5, 6, 6, 4], [3, 5, 3, 8, 3], [7, 8, 4, 4, 4], [8, 5, 1, 5, 7], [4, 5, 8, 4, 3]]","[[2, 2, 2, 2, 0], [2, 2, 2, 2, 2], [0, 0, 2, 2, 0], [2, 2, 2, 2, 0], [2, 2, 2, 0, 2]]","[7, 6, 6, 9, 2]",8,8,4,0.046,0.046,0.0,[],0,greedy,5,5,1027,0,139,139,attentional-mouselab,12,156230,2
mouselab,False,[],"[[1, 7, 4, 9, 3], [6, 3, 4, 6, 5], [4, 5, 5, 8, 5], [8, 4, 4, 4, 4], [5, 3, 3, 9, 7]]","[[0, 2, 0, 0, 2], [2, 2, 2, 2, 2], [2, 0, 2, 2, 2], [2, 2, 2, 0, 2], [2, 2, 2, 0, 2]]","[7, 6, 4, 7, 6]",4,9,0,0.048,0.048,0.0,[],0,extreme,5,5,1115,0,145,145,attentional-mouselab,13,158344,2
mouselab,False,[],"[[7, 7, 5, 3, 7], [6, 5, 3, 6, 7], [5, 3, 7, 2, 4], [5, 4, 6, 4, 6], [6, 6, 7, 1, 5]]","[[0, 0, 2, 2, 0], [2, 0, 2, 2, 2], [2, 2, 0, 0, 2], [2, 2, 2, 2, 2], [2, 2, 2, 2, 2]]","[9, 1, 5, 3, 12]",18,10,1,0.056,0.056,0.0,[],0,greedy,5,5,1593,0,167,167,attentional-mouselab,14,160899,2
mouselab,False,[],"[[7, 4, 2, 9, 7], [3, 4, 3, 6, 4], [5, 4, 6, 3, 5], [4, 4, 6, 4, 3], [6, 2, 7, 5, 6]]","[[0, 0, 2, 0, 2], [2, 2, 2, 2, 2], [2, 2, 2, 2, 0], [0, 2, 2, 2, 2], [2, 2, 2, 0, 2]]","[1, 24, 2, 2, 1]",36,11,3,0.057,0.057,0.0,[],0,random,5,5,2021,0,172,172,attentional-mouselab,15,163777,2
mouselab,False,[],"[[1, 5, 6, 2, 5], [9, 3, 5, 4, 6], [5, 4, 4, 5, 7], [7, 6, 7, 5, 2], [3, 8, 3, 7, 6]]","[[0, 2, 2, 0, 2], [0, 2, 2, 2, 2], [2, 2, 2, 2, 2], [2, 2, 2, 2, 0], [2, 0, 2, 2, 0]]","[1, 13, 12, 2, 2]",26,12,1,0.04,0.04,0.0,[],0,extreme,5,5,1337,0,120,120,attentional-mouselab,16,165914,2
mouselab,False,[],"[[6, 2, 4, 6, 4], [6, 7, 2, 2, 6], [5, 5, 5, 3, 3], [8, 4, 2, 5, 8], [6, 4, 4, 7, 6]]","[[0, 0, 2, 2, 2], [2, 2, 0, 0, 2], [2, 2, 2, 2, 2], [0, 2, 2, 2, 2], [2, 2, 2, 2, 0]]","[4, 5, 6, 5, 10]",8,13,0,0.061,0.061,0.0,[],0,extreme,5,5,1219,0,184,184,attentional-mouselab,17,168607,2
mouselab,False,[],"[[8, 1, 6, 5, 4], [6, 4, 7, 4, 5], [7, 7, 6, 5, 6], [4, 7, 5, 6, 5], [4, 6, 6, 4, 2]]","[[0, 0, 0, 2, 2], [2, 2, 2, 2, 2], [2, 2, 2, 2, 2], [2, 0, 2, 2, 2], [2, 2, 2, 0, 0]]","[1, 14, 12, 1, 2]",28,14,3,0.045,0.045,0.0,[],0,extreme,5,5,1053,0,135,135,attentional-mouselab,18,170988,2
mouselab,False,[],"[[8, 4, 5, 7, 10], [6, 6, 4, 5, 6], [1, 4, 5, 5, 5], [5, 3, 6, 4, 7], [5, 5, 3, 2, 4]]","[[0, 0, 0, 2, 2], [2, 2, 2, 2, 0], [2, 2, 2, 2, 2], [2, 2, 2, 0, 2], [2, 2, 0, 2, 2]]","[1, 9, 1, 14, 5]",22,15,3,0.041,0.041,0.0,[],0,random,5,5,3541,0,123,123,attentional-mouselab,19,175488,2
mouselab,False,[],"[[6, 6, 6, 5, 7], [4, 4, 4, 8, 5], [5, 3, 4, 1, 5], [3, 5, 2, 4, 7], [5, 3, 5, 6, 6]]","[[2, 2, 2, 2, 0], [2, 2, 0, 0, 2], [2, 2, 2, 0, 2], [2, 2, 0, 2, 2], [2, 2, 2, 2, 0]]","[1, 14, 13, 1, 1]",30,16,1,0.036,0.036,0.0,[],0,extreme,5,5,1186,0,109,109,attentional-mouselab,20,177817,2
mouselab,False,[],"[[5, 2, 3, 4, 5], [6, 8, 7, 6, 4], [6, 7, 6, 5, 4], [8, 3, 3, 7, 7], [4, 7, 3, 5, 5]]","[[2, 2, 2, 2, 0], [2, 2, 2, 0, 2], [0, 0, 2, 2, 0], [2, 2, 2, 2, 2], [2, 2, 0, 2, 2]]","[5, 3, 11, 3, 8]",14,17,1,0.059,0.059,0.0,[],0,random,5,5,725,0,176,176,attentional-mouselab,21,179442,2
mouselab,True,"[0, 11, 22, 23, 8, 4, 0, 11, 22, 23, 8, 4]","[[8, 6, 7, 2, 6], [6, 4, 7, 3, 6], [5, 7, 4, 4, 10], [5, 3, 2, 4, 3], [2, 7, 7, 7, 5]]","[[0, 2, 0, 2, 0], [0, 0, 2, 0, 0], [2, 0, 2, 2, 0], [0, 2, 2, 2, 2], [2, 2, 0, 0, 2]]","[1, 1, 5, 14, 9]",22,1,4,0.05,0.046,0.004,"[0, 11, 22, 23, 8, 4]",6,random,5,5,55818,12,149,137,attentional-mouselab,4,200906,3
mouselab,True,"[20, 16, 13, 5, 24]","[[5, 5, 3, 7, 7], [6, 6, 4, 5, 7], [5, 0, 5, 4, 6], [5, 4, 4, 5, 6], [5, 6, 6, 5, 4]]","[[2, 0, 2, 0, 0], [1, 2, 0, 2, 2], [2, 2, 0, 1, 2], [2, 1, 2, 2, 0], [1, 2, 2, 2, 1]]","[12, 5, 4, 3, 6]",12,2,4,0.062,0.060333333333333336,0.0016666666666666668,[],0,random,5,5,24685,5,185,180,attentional-mouselab,5,233427,3
mouselab,False,"[20, 3, 14, 24, 18]","[[3, 4, 5, 5, 3], [9, 6, 2, 6, 3], [5, 7, 4, 6, 7], [8, 4, 0, 4, 8], [3, 6, 2, 5, 6]]","[[2, 2, 2, 1, 2], [0, 2, 0, 2, 2], [2, 0, 0, 2, 1], [2, 0, 0, 1, 2], [1, 2, 2, 2, 1]]","[7, 2, 8, 3, 10]",14,3,4,0.056,0.05433333333333334,0.0016666666666666668,[],0,extreme,5,5,11516,5,167,162,attentional-mouselab,7,254157,3
mouselab,False,"[0, 15, 9, 24, 12]","[[5, 3, 4, 8, 4], [8, 5, 7, 7, 4], [4, 4, 4, 6, 6], [4, 5, 6, 1, 6], [7, 9, 4, 4, 6]]","[[1, 2, 0, 0, 2], [2, 0, 2, 2, 1], [2, 2, 1, 0, 2], [1, 2, 2, 0, 2], [2, 0, 2, 2, 1]]","[5, 8, 6, 10, 1]",12,4,2,0.055,0.05333333333333334,0.0016666666666666668,[],0,extreme,5,5,14717,5,164,159,attentional-mouselab,8,275514,3
mouselab,False,"[9, 9, 19, 19, 10, 10]","[[6, 4, 5, 3, 6], [7, 1, 7, 4, 4], [5, 6, 3, 7, 3], [5, 5, 4, 5, 2], [3, 4, 8, 7, 5]]","[[2, 0, 2, 2, 2], [2, 0, 2, 2, 0], [0, 2, 2, 2, 2], [2, 0, 2, 2, 0], [2, 0, 0, 0, 2]]","[15, 2, 1, 7, 5]",20,5,0,0.053,0.051,0.002,"[9, 19, 10]",3,greedy,5,5,11497,6,159,153,attentional-mouselab,9,289783,3
mouselab,False,"[5, 5, 15, 6]","[[6, 1, 1, 4, 5], [5, 7, 3, 2, 6], [4, 3, 3, 7, 6], [4, 2, 2, 4, 4], [5, 6, 8, 3, 3]]","[[2, 2, 2, 0, 0], [0, 1, 2, 2, 0], [2, 2, 2, 2, 2], [1, 2, 0, 0, 2], [2, 0, 2, 2, 2]]","[1, 10, 8, 3, 8]",16,6,0,0.047,0.04566666666666667,0.0013333333333333333,[5],1,random,5,5,10229,4,140,136,attentional-mouselab,10,310171,3
mouselab,False,"[18, 8, 24, 12]","[[8, 6, 5, 5, 5], [3, 7, 4, 5, 4], [5, 7, 3, 5, 4], [7, 3, 8, 5, 6], [3, 5, 6, 5, 5]]","[[0, 0, 2, 2, 0], [0, 2, 2, 1, 2], [2, 0, 1, 2, 2], [2, 2, 0, 1, 2], [2, 2, 2, 2, 1]]","[2, 9, 6, 5, 8]",10,7,3,0.05,0.04866666666666667,0.0013333333333333333,[],0,extreme,5,5,6367,4,150,146,attentional-mouselab,11,321375,3
mouselab,False,"[10, 5, 6, 1]","[[4, 5, 7, 4, 3], [5, 5, 2, 5, 6], [6, 4, 5, 2, 2], [2, 1, 7, 2, 4], [2, 7, 7, 5, 2]]","[[2, 1, 2, 2, 2], [1, 1, 0, 0, 2], [1, 2, 2, 0, 0], [2, 0, 2, 2, 2], [2, 2, 2, 0, 2]]","[11, 7, 3, 8, 1]",16,8,0,0.038,0.03666666666666667,0.0013333333333333333,[],0,extreme,5,5,11663,4,115,111,attentional-mouselab,12,335466,3
mouselab,False,"[16, 10, 20, 7, 17]","[[2, 5, 7, 2, 4], [5, 6, 4, 7, 5], [6, 8, 6, 5, 5], [9, 6, 4, 6, 4], [5, 4, 7, 5, 5]]","[[2, 0, 2, 2, 0], [2, 2, 1, 2, 0], [1, 2, 2, 0, 0], [2, 1, 1, 2, 2], [1, 2, 2, 2, 0]]","[8, 5, 5, 4, 8]",8,9,3,0.047,0.04533333333333334,0.0016666666666666668,[],0,random,5,5,6287,5,140,135,attentional-mouselab,13,344000,3
mouselab,False,"[7, 8, 9, 11]","[[5, 5, 6, 3, 6], [5, 8, 2, 6, 5], [6, 8, 7, 3, 0], [9, 6, 7, 7, 10], [4, 5, 6, 4, 2]]","[[0, 2, 2, 2, 2], [2, 2, 1, 1, 1], [2, 1, 2, 2, 2], [0, 2, 0, 0, 0], [2, 0, 2, 2, 2]]","[4, 4, 13, 4, 5]",14,10,4,0.031,0.029666666666666668,0.0013333333333333333,[],0,greedy,5,5,4783,4,94,90,attentional-mouselab,14,350617,3
mouselab,False,"[5, 15, 5, 15, 14, 18]","[[4, 6, 4, 6, 5], [4, 8, 2, 9, 6], [5, 6, 6, 5, 3], [7, 4, 6, 5, 3], [6, 7, 5, 4, 6]]","[[2, 2, 2, 2, 2], [0, 0, 0, 0, 2], [2, 2, 2, 2, 1], [0, 2, 0, 1, 2], [2, 0, 0, 2, 2]]","[10, 11, 2, 4, 3]",18,11,4,0.051,0.048999999999999995,0.002,"[5, 15]",2,extreme,5,5,5814,6,152,146,attentional-mouselab,15,358808,3
mouselab,False,"[17, 4, 20]","[[4, 1, 5, 4, 4], [2, 3, 5, 5, 7], [6, 4, 4, 5, 8], [8, 5, 6, 6, 6], [4, 1, 9, 4, 7]]","[[0, 2, 0, 2, 1], [2, 2, 2, 2, 2], [0, 2, 2, 0, 2], [2, 2, 1, 0, 0], [1, 2, 2, 2, 2]]","[14, 1, 3, 8, 4]",20,12,1,0.024,0.023,0.001,[],0,random,5,5,10355,3,73,70,attentional-mouselab,16,371088,3
mouselab,False,"[20, 24, 19, 7]","[[7, 5, 5, 6, 6], [6, 3, 3, 2, 5], [4, 3, 5, 6, 3], [4, 7, 3, 4, 8], [7, 3, 6, 7, 6]]","[[2, 2, 2, 2, 0], [0, 2, 1, 0, 2], [2, 0, 2, 0, 2], [2, 2, 0, 2, 1], [1, 2, 2, 2, 1]]","[3, 2, 3, 6, 16]",20,13,1,0.04,0.03866666666666667,0.0013333333333333333,[],0,random,5,5,5145,4,120,116,attentional-mouselab,17,377747,3
mouselab,False,"[15, 16, 17, 18]","[[3, 1, 6, 4, 5], [6, 6, 7, 7, 5], [8, 5, 1, 6, 5], [8, 7, 4, 5, 3], [5, 6, 4, 3, 6]]","[[0, 2, 2, 2, 2], [2, 0, 0, 0, 0], [2, 2, 2, 2, 2], [1, 1, 1, 1, 0], [2, 2, 2, 2, 2]]","[6, 3, 13, 4, 4]",14,14,1,0.047,0.04566666666666667,0.0013333333333333333,[],0,greedy,5,5,4207,4,141,137,attentional-mouselab,18,386194,3
mouselab,False,"[0, 21, 3, 24, 24, 3, 21, 0]","[[7, 4, 6, 3, 2], [5, 7, 8, 7, 3], [6, 9, 4, 8, 5], [2, 8, 5, 9, 4], [4, 6, 5, 8, 7]]","[[0, 2, 2, 0, 2], [2, 2, 0, 2, 2], [2, 0, 0, 0, 0], [2, 2, 2, 2, 2], [0, 0, 2, 2, 0]]","[4, 4, 7, 8, 7]",8,15,1,0.071,0.06833333333333333,0.0026666666666666666,"[24, 3, 21, 0]",4,greedy,5,5,8668,8,213,205,attentional-mouselab,19,399309,3
mouselab,False,"[0, 0, 23, 23]","[[6, 2, 0, 3, 4], [3, 5, 3, 6, 5], [2, 5, 3, 5, 3], [5, 8, 4, 1, 9], [8, 6, 3, 4, 3]]","[[0, 2, 2, 2, 2], [2, 2, 2, 2, 2], [2, 2, 0, 0, 2], [0, 0, 2, 2, 0], [0, 2, 2, 0, 2]]","[1, 1, 14, 2, 12]",28,16,2,0.03,0.028666666666666667,0.0013333333333333333,"[0, 23]",2,greedy,5,5,8310,4,89,85,attentional-mouselab,20,410106,3
mouselab,False,"[0, 0, 9, 9, 14, 14, 10, 10]","[[5, 5, 2, 6, 3], [5, 9, 8, 5, 7], [6, 5, 5, 5, 4], [5, 6, 4, 8, 5], [5, 5, 8, 5, 6]]","[[0, 2, 0, 2, 2], [2, 2, 0, 2, 0], [0, 2, 2, 2, 0], [2, 2, 0, 0, 2], [0, 2, 2, 0, 2]]","[1, 2, 8, 10, 9]",18,17,1,0.056,0.05333333333333334,0.0026666666666666666,"[0, 9, 14, 10]",4,random,5,5,8819,8,168,160,attentional-mouselab,21,420756,3
mouselab,True,[],"[[7, 3, 3, 6, 6], [6, 3, 4, 7, 8], [4, 4, 6, 5, 7], [5, 8, 2, 4, 5], [5, 8, 6, 6, 5]]","[[2, 2, 2, 2, 0], [2, 2, 0, 0, 0], [2, 2, 2, 2, 2], [2, 2, 0, 0, 2], [2, 2, 2, 2, 2]]","[2, 5, 6, 3, 14]",16,1,0,0.051,0.051,0.0,[],0,random,5,5,32461,0,153,153,attentional-mouselab,4,145205,4
mouselab,True,"[15, 15]","[[4, 4, 9, 5, 3], [6, 1, 5, 7, 3], [1, 6, 3, 6, 4], [6, 7, 7, 4, 5], [5, 5, 3, 5, 6]]","[[2, 2, 0, 2, 0], [2, 0, 2, 0, 2], [2, 2, 0, 2, 2], [0, 2, 2, 2, 2], [2, 2, 2, 2, 0]]","[6, 5, 15, 2, 2]",18,2,2,0.048,0.04733333333333333,0.0006666666666666666,[15],1,random,5,5,22198,2,144,142,attentional-mouselab,5,168718,4
mouselab,False,"[24, 24, 15, 15, 11, 11]","[[3, 5, 4, 4, 5], [7, 7, 5, 7, 8], [4, 5, 5, 6, 6], [7, 5, 6, 4, 4], [2, 4, 3, 6, 2]]","[[2, 2, 0, 2, 2], [0, 0, 2, 0, 0], [2, 0, 2, 2, 2], [0, 2, 2, 0, 2], [2, 2, 2, 2, 0]]","[2, 10, 6, 2, 10]",16,3,0,0.045,0.043,0.002,"[24, 15, 11]",3,greedy,5,5,13183,6,134,128,attentional-mouselab,7,189277,4
mouselab,False,"[0, 0, 22, 22, 16, 16, 7, 7]","[[4, 6, 5, 5, 5], [5, 4, 4, 9, 5], [8, 7, 6, 4, 4], [6, 4, 4, 5, 1], [4, 0, 7, 6, 4]]","[[0, 2, 2, 2, 0], [2, 2, 0, 2, 0], [2, 0, 2, 0, 2], [2, 0, 2, 2, 2], [2, 2, 0, 0, 0]]","[3, 14, 11, 1, 1]",26,4,1,0.052,0.04933333333333333,0.0026666666666666666,"[0, 22, 16, 7]",4,random,5,5,12223,8,155,147,attentional-mouselab,8,202365,4
mouselab,False,[],"[[6, 4, 4, 5, 6], [2, 3, 2, 5, 5], [6, 4, 5, 3, 5], [3, 5, 3, 3, 6], [4, 6, 6, 5, 7]]","[[2, 2, 2, 2, 0], [0, 2, 2, 0, 2], [2, 2, 0, 2, 2], [0, 2, 2, 2, 2], [2, 2, 0, 2, 2]]","[7, 10, 7, 2, 4]",12,5,2,0.038,0.038,0.0,[],0,random,5,5,5006,0,113,113,attentional-mouselab,9,208645,4
mouselab,False,[],"[[5, 3, 6, 8, 4], [1, 5, 5, 4, 6], [7, 2, 6, 7, 4], [3, 5, 5, 4, 5], [4, 5, 2, 5, 2]]","[[2, 2, 2, 0, 2], [2, 2, 2, 0, 2], [0, 2, 0, 2, 2], [2, 2, 2, 2, 2], [0, 2, 2, 2, 0]]","[10, 9, 5, 2, 4]",14,6,3,0.06,0.06,0.0,[],0,greedy,5,5,3671,0,179,179,attentional-mouselab,10,213365,4
mouselab,False,"[17, 17, 4, 4]","[[4, 3, 6, 7, 2], [5, 4, 9, 6, 5], [7, 7, 7, 4, 6], [1, 7, 4, 5, 4], [4, 5, 4, 5, 8]]","[[0, 2, 2, 2, 0], [2, 2, 0, 2, 2], [0, 0, 2, 0, 2], [2, 2, 0, 2, 2], [2, 2, 2, 0, 2]]","[11, 3, 2, 8, 6]",14,7,2,0.054,0.05266666666666667,0.0013333333333333333,"[17, 4]",2,greedy,5,5,8335,4,163,159,attentional-mouselab,11,222652,4
mouselab,False,[],"[[8, 5, 4, 5, 5], [5, 9, 8, 8, 6], [5, 7, 3, 5, 4], [4, 7, 3, 4, 3], [6, 1, 7, 4, 7]]","[[0, 2, 2, 2, 0], [2, 0, 0, 2, 2], [2, 2, 2, 2, 2], [2, 2, 0, 2, 2], [2, 0, 2, 2, 2]]","[9, 5, 11, 2, 3]",16,8,2,0.045,0.045,0.0,[],0,extreme,5,5,20344,0,136,136,attentional-mouselab,12,244349,4
mouselab,False,"[5, 5, 18, 18]","[[5, 6, 5, 6, 3], [3, 5, 2, 6, 7], [7, 10, 2, 4, 6], [4, 6, 7, 3, 5], [3, 8, 5, 6, 5]]","[[2, 2, 2, 2, 2], [0, 2, 0, 2, 2], [2, 0, 0, 2, 2], [2, 2, 2, 0, 0], [2, 0, 2, 2, 0]]","[9, 3, 4, 3, 11]",16,9,1,0.072,0.07066666666666666,0.0013333333333333333,"[5, 18]",2,extreme,5,5,5854,4,215,211,attentional-mouselab,13,251740,4
mouselab,False,"[3, 3]","[[7, 4, 6, 3, 2], [5, 7, 8, 7, 3], [6, 9, 4, 8, 5], [2, 8, 5, 9, 4], [4, 6, 5, 8, 7]]","[[2, 2, 2, 0, 2], [2, 0, 2, 2, 0], [2, 2, 0, 2, 0], [2, 2, 2, 0, 2], [0, 2, 2, 2, 2]]","[8, 3, 2, 8, 9]",14,10,3,0.068,0.06733333333333334,0.0006666666666666666,[3],1,random,5,5,7383,2,205,203,attentional-mouselab,14,260253,4
mouselab,False,[],"[[5, 3, 4, 4, 5], [6, 4, 3, 5, 4], [4, 4, 5, 7, 5], [4, 7, 5, 4, 6], [9, 8, 2, 1, 4]]","[[2, 2, 0, 2, 2], [2, 2, 2, 2, 2], [2, 2, 2, 0, 2], [2, 0, 2, 2, 2], [0, 0, 2, 0, 2]]","[9, 2, 7, 10, 2]",16,11,1,0.05,0.05,0.0,[],0,extreme,5,5,2679,0,149,149,attentional-mouselab,15,264084,4
mouselab,False,"[19, 19]","[[6, 4, 6, 4, 6], [6, 2, 3, 8, 6], [7, 7, 4, 8, 10], [4, 6, 7, 5, 6], [5, 5, 7, 5, 4]]","[[2, 2, 2, 2, 2], [2, 2, 2, 0, 2], [0, 0, 0, 2, 2], [2, 2, 2, 2, 0], [2, 0, 2, 0, 2]]","[2, 5, 8, 13, 2]",18,12,3,0.062,0.06133333333333333,0.0006666666666666666,[19],1,random,5,5,6422,2,187,185,attentional-mouselab,16,271164,4
mouselab,False,"[17, 17]","[[6, 6, 3, 5, 5], [5, 4, 4, 6, 7], [6, 5, 4, 6, 7], [3, 5, 9, 5, 2], [6, 5, 5, 6, 5]]","[[0, 2, 2, 2, 2], [2, 2, 2, 2, 2], [0, 0, 2, 0, 0], [2, 2, 0, 2, 2], [2, 0, 2, 2, 2]]","[4, 7, 8, 7, 4]",8,13,2,0.052,0.05133333333333333,0.0006666666666666666,[17],1,greedy,5,5,3814,2,155,153,attentional-mouselab,17,276068,4
mouselab,False,"[16, 16, 17, 17]","[[3, 3, 5, 4, 8], [6, 4, 7, 7, 6], [2, 5, 9, 8, 5], [3, 8, 3, 7, 5], [9, 6, 7, 4, 6]]","[[2, 2, 2, 2, 0], [2, 2, 2, 2, 0], [0, 2, 0, 0, 2], [2, 0, 0, 2, 2], [0, 2, 2, 2, 2]]","[2, 9, 3, 15, 1]",24,14,1,0.061,0.059666666666666666,0.0013333333333333333,"[16, 17]",2,extreme,5,5,6087,4,183,179,attentional-mouselab,18,283333,4
mouselab,False,"[18, 18]","[[4, 3, 7, 4, 4], [9, 4, 7, 5, 4], [6, 5, 8, 6, 3], [5, 4, 6, 6, 3], [5, 6, 3, 4, 8]]","[[2, 0, 2, 2, 2], [0, 2, 0, 2, 2], [2, 0, 0, 2, 2], [2, 2, 2, 0, 2], [2, 2, 2, 2, 0]]","[1, 7, 14, 5, 3]",18,15,0,0.064,0.06333333333333334,0.0006666666666666666,[18],1,extreme,5,5,10070,2,191,189,attentional-mouselab,19,294100,4
mouselab,False,"[5, 5, 16, 16]","[[5, 8, 7, 4, 2], [6, 5, 4, 3, 5], [6, 4, 7, 2, 8], [6, 5, 6, 7, 7], [7, 4, 8, 5, 4]]","[[2, 0, 2, 0, 2], [0, 2, 2, 2, 2], [2, 2, 0, 2, 2], [2, 0, 2, 0, 0], [0, 2, 2, 2, 2]]","[3, 2, 9, 12, 4]",18,16,1,0.049,0.04766666666666667,0.0013333333333333333,"[5, 16]",2,greedy,5,5,10919,4,146,142,attentional-mouselab,20,305772,4
mouselab,False,"[19, 19, 6, 6]","[[6, 5, 2, 6, 5], [8, 6, 4, 10, 5], [1, 4, 4, 4, 5], [4, 7, 6, 5, 7], [4, 5, 5, 5, 4]]","[[2, 0, 2, 0, 2], [2, 0, 2, 2, 2], [2, 2, 0, 0, 2], [0, 2, 2, 2, 0], [2, 2, 2, 0, 2]]","[5, 7, 4, 13, 1]",16,17,4,0.058,0.05666666666666667,0.0013333333333333333,"[19, 6]",2,random,5,5,5689,4,175,171,attentional-mouselab,21,312108,4
mouselab,True,"[7, 8, 13, 18, 15, 10, 4, 14, 17, 12, 24, 22, 21, 20, 0, 2, 3, 1, 11, 11, 14, 13, 4, 3, 8, 2, 7, 1, 0, 10, 15, 20, 21, 22, 17, 12, 18, 24, 24, 24, 3, 3, 2, 1]","[[5, 4, 3, 7, 3], [7, 4, 7, 7, 4], [5, 3, 5, 5, 4], [8, 5, 4, 7, 3], [8, 7, 6, 4, 3]]","[[0, 0, 0, 0, 0], [0, 0, 0, 0, 0], [0, 0, 0, 0, 0], [0, 0, 0, 0, 0], [0, 0, 0, 0, 0]]","[8, 4, 10, 2, 6]",12,1,2,0.049,0.036333333333333336,0.012666666666666666,"[11, 14, 13, 4, 3, 8, 2, 7, 1, 0, 10, 15, 20, 21, 22, 17, 12, 18, 24]",19,random,5,5,100078,38,146,108,attentional-mouselab,4,162113,5
mouselab,True,[],"[[5, 8, 2, 7, 5], [3, 5, 6, 6, 5], [5, 1, 6, 7, 6], [3, 5, 5, 4, 6], [3, 4, 7, 5, 2]]","[[0, 2, 2, 2, 2], [2, 2, 0, 2, 2], [2, 2, 0, 0, 2], [2, 0, 2, 0, 2], [2, 2, 2, 2, 2]]","[8, 5, 6, 7, 4]",6,2,2,0.048,0.048,0.0,[],0,random,5,5,2133,0,145,145,attentional-mouselab,5,165329,5
mouselab,False,[],"[[6, 2, 0, 3, 4], [3, 5, 3, 6, 5], [2, 5, 3, 5, 3], [5, 8, 4, 1, 9], [8, 6, 3, 4, 3]]","[[2, 2, 2, 2, 2], [2, 2, 2, 2, 2], [2, 2, 0, 0, 2], [0, 0, 2, 2, 0], [0, 2, 2, 2, 2]]","[9, 3, 7, 10, 1]",16,3,1,0.051,0.051,0.0,[],0,greedy,5,5,934,0,154,154,attentional-mouselab,7,168994,5
mouselab,False,[],"[[2, 3, 7, 5, 7], [4, 5, 5, 5, 6], [6, 4, 3, 6, 3], [2, 6, 7, 6, 7], [7, 6, 5, 3, 4]]","[[2, 2, 2, 0, 2], [2, 2, 2, 2, 2], [2, 2, 2, 0, 2], [2, 0, 0, 2, 0], [2, 0, 2, 2, 2]]","[3, 9, 5, 5, 8]",10,4,4,0.052,0.052,0.0,[],0,greedy,5,5,974,0,157,157,attentional-mouselab,8,171194,5
mouselab,False,[],"[[1, 5, 4, 4, 6], [4, 7, 4, 6, 7], [6, 2, 6, 7, 4], [6, 4, 5, 4, 8], [5, 5, 3, 2, 6]]","[[2, 2, 2, 2, 2], [0, 0, 2, 0, 2], [2, 2, 2, 2, 2], [2, 2, 0, 2, 0], [2, 0, 2, 2, 2]]","[6, 4, 6, 7, 7]",4,5,0,0.045,0.045,0.0,[],0,greedy,5,5,973,0,135,135,attentional-mouselab,9,172953,5
mouselab,False,[],"[[3, 6, 4, 3, 7], [3, 2, 5, 2, 5], [5, 3, 7, 6, 5], [5, 4, 5, 5, 3], [5, 3, 6, 3, 10]]","[[2, 2, 2, 2, 0], [2, 2, 0, 2, 2], [2, 0, 2, 2, 2], [2, 0, 2, 2, 0], [2, 2, 0, 2, 2]]","[4, 17, 2, 4, 3]",22,6,2,0.051,0.051,0.0,[],0,random,5,5,741,0,153,153,attentional-mouselab,10,174761,5
mouselab,False,[],"[[0, 6, 4, 6, 6], [4, 3, 7, 4, 5], [3, 7, 5, 3, 6], [6, 7, 5, 5, 6], [6, 4, 3, 4, 1]]","[[2, 0, 2, 2, 0], [2, 2, 0, 2, 2], [2, 0, 2, 2, 2], [2, 2, 0, 0, 2], [2, 2, 2, 2, 2]]","[7, 12, 6, 1, 4]",14,7,1,0.048,0.048,0.0,[],0,random,5,5,758,0,143,143,attentional-mouselab,11,176306,5
mouselab,False,[],"[[3, 2, 4, 5, 7], [6, 2, 7, 8, 4], [8, 5, 7, 6, 7], [6, 5, 3, 3, 5], [5, 7, 4, 5, 5]]","[[2, 2, 2, 2, 2], [2, 2, 2, 2, 2], [0, 2, 0, 2, 0], [0, 2, 0, 2, 2], [2, 0, 2, 2, 2]]","[10, 8, 4, 1, 7]",14,8,0,0.05,0.05,0.0,[],0,greedy,5,5,958,0,151,151,attentional-mouselab,12,178380,5
mouselab,False,"[3, 8, 18]","[[9, 4, 4, 5, 7], [8, 7, 4, 4, 4], [5, 4, 6, 3, 3], [7, 8, 5, 4, 5], [6, 5, 4, 6, 4]]","[[0, 2, 2, 1, 0], [0, 2, 2, 1, 2], [2, 2, 2, 2, 2], [2, 0, 0, 1, 2], [0, 2, 2, 2, 2]]","[3, 6, 6, 11, 4]",10,9,4,0.045,0.044,0.001,[],0,extreme,5,5,2167,3,134,131,attentional-mouselab,13,181666,5
mouselab,False,[],"[[4, 8, 5, 5, 5], [6, 7, 3, 6, 7], [6, 7, 5, 2, 5], [4, 5, 5, 3, 8], [3, 3, 4, 2, 4]]","[[2, 0, 0, 2, 2], [2, 2, 2, 2, 2], [0, 2, 2, 0, 0], [2, 2, 2, 2, 0], [2, 2, 2, 2, 2]]","[12, 6, 8, 2, 2]",16,10,2,0.045,0.045,0.0,[],0,extreme,5,5,1053,0,136,136,attentional-mouselab,14,183728,5
mouselab,False,[],"[[5, 5, 2, 6, 3], [5, 9, 8, 5, 7], [6, 5, 5, 5, 4], [5, 6, 4, 8, 5], [5, 5, 8, 5, 6]]","[[2, 2, 0, 2, 2], [2, 2, 0, 2, 2], [2, 2, 2, 2, 2], [2, 2, 0, 0, 2], [0, 2, 2, 0, 2]]","[10, 12, 2, 3, 3]",20,11,1,0.067,0.067,0.0,[],0,random,5,5,934,0,201,201,attentional-mouselab,15,185912,5
mouselab,False,"[5, 10, 15, 15]","[[6, 7, 4, 6, 4], [5, 7, 4, 4, 6], [5, 5, 4, 4, 3], [5, 7, 2, 5, 3], [5, 4, 6, 6, 4]]","[[0, 0, 2, 0, 2], [1, 0, 2, 2, 2], [1, 2, 2, 2, 2], [0, 2, 0, 0, 2], [2, 2, 2, 2, 2]]","[4, 6, 3, 6, 11]",10,12,0,0.051,0.049666666666666665,0.0013333333333333333,[15],1,extreme,5,5,3607,4,154,150,attentional-mouselab,16,190785,5
mouselab,False,[],"[[5, 4, 5, 6, 6], [5, 4, 5, 7, 2], [3, 7, 5, 3, 3], [3, 8, 10, 7, 4], [2, 6, 9, 4, 6]]","[[2, 2, 2, 2, 2], [2, 0, 2, 2, 2], [2, 0, 2, 2, 2], [0, 2, 0, 0, 2], [2, 2, 2, 0, 2]]","[4, 3, 11, 5, 7]",12,13,2,0.068,0.068,0.0,[],0,random,5,5,759,0,203,203,attentional-mouselab,17,192624,5
mouselab,False,[],"[[6, 5, 7, 6, 7], [8, 6, 4, 5, 3], [5, 9, 2, 7, 3], [8, 2, 4, 5, 6], [5, 3, 3, 5, 5]]","[[2, 2, 2, 2, 2], [0, 0, 2, 2, 2], [2, 0, 0, 2, 2], [2, 2, 2, 0, 2], [0, 2, 2, 2, 2]]","[10, 4, 1, 5, 10]",16,14,1,0.041,0.041,0.0,[],0,extreme,5,5,811,0,123,123,attentional-mouselab,18,194262,5
mouselab,False,[],"[[8, 4, 4, 6, 4], [3, 4, 9, 5, 3], [7, 7, 6, 4, 4], [6, 4, 3, 5, 4], [5, 6, 7, 6, 7]]","[[2, 2, 2, 2, 2], [2, 2, 2, 2, 2], [0, 2, 2, 2, 2], [2, 2, 0, 2, 2], [2, 0, 0, 0, 0]]","[2, 1, 13, 11, 3]",24,15,3,0.047,0.047,0.0,[],0,greedy,5,5,725,0,142,142,attentional-mouselab,19,195634,5
mouselab,False,[],"[[7, 4, 2, 9, 7], [3, 4, 3, 6, 4], [5, 4, 6, 3, 5], [4, 4, 6, 4, 3], [6, 2, 7, 5, 6]]","[[0, 0, 2, 0, 2], [2, 2, 2, 2, 2], [2, 2, 2, 2, 0], [0, 2, 2, 2, 2], [2, 2, 2, 0, 2]]","[8, 12, 4, 1, 5]",16,16,2,0.039,0.039,0.0,[],0,random,5,5,1142,0,117,117,attentional-mouselab,20,197640,5
mouselab,False,[],"[[4, 4, 4, 5, 4], [7, 4, 5, 6, 4], [5, 4, 4, 7, 5], [7, 5, 6, 3, 3], [7, 5, 5, 5, 5]]","[[2, 2, 0, 2, 2], [0, 2, 0, 2, 2], [2, 2, 2, 0, 2], [0, 2, 0, 2, 2], [2, 2, 2, 2, 2]]","[8, 14, 4, 3, 1]",20,17,1,0.041,0.041,0.0,[],0,extreme,5,5,960,0,124,124,attentional-mouselab,21,199826,5
mouselab,True,[],"[[1, 5, 6, 6, 5], [8, 6, 6, 2, 4], [8, 5, 3, 4, 6], [7, 2, 4, 4, 7], [5, 4, 4, 8, 5]]","[[0, 2, 0, 0, 2], [2, 2, 0, 2, 2], [2, 2, 2, 2, 2], [2, 2, 0, 2, 2], [2, 2, 0, 2, 2]]","[9, 6, 2, 3, 10]",14,1,3,0.055,0.055,0.0,[],0,random,5,5,5821,0,166,166,attentional-mouselab,4,166541,6
mouselab,True,"[7, 7, 16, 16, 16, 14, 14, 19, 19]","[[4, 7, 9, 3, 8], [8, 3, 5, 3, 4], [3, 4, 4, 3, 3], [4, 2, 7, 6, 6], [4, 5, 7, 6, 6]]","[[0, 2, 2, 2, 2], [2, 0, 0, 0, 2], [2, 2, 2, 2, 0], [2, 0, 2, 2, 0], [0, 2, 0, 0, 2]]","[2, 7, 12, 5, 4]",14,2,4,0.045,0.042333333333333334,0.0026666666666666666,"[7, 16, 14, 19]",4,random,5,5,18460,8,134,126,attentional-mouselab,5,188354,6
mouselab,False,"[8, 8, 23, 23]","[[6, 7, 4, 5, 2], [4, 9, 6, 4, 4], [9, 6, 7, 5, 7], [5, 2, 5, 5, 7], [6, 7, 3, 6, 4]]","[[0, 0, 2, 2, 2], [2, 2, 2, 0, 2], [2, 0, 2, 2, 2], [0, 0, 2, 2, 2], [0, 2, 2, 0, 2]]","[8, 14, 2, 2, 4]",20,3,4,0.039,0.03766666666666667,0.0013333333333333333,"[8, 23]",2,random,5,5,8364,4,116,112,attentional-mouselab,7,200798,6
mouselab,False,[],"[[2, 6, 4, 3, 3], [8, 7, 4, 5, 4], [5, 4, 4, 10, 5], [3, 8, 8, 8, 8], [5, 7, 3, 1, 4]]","[[0, 2, 2, 2, 2], [0, 2, 2, 2, 2], [2, 2, 0, 0, 2], [2, 2, 0, 2, 2], [2, 2, 2, 0, 2]]","[10, 5, 3, 6, 6]",8,4,3,0.046,0.046,0.0,[],0,extreme,5,5,1905,0,139,139,attentional-mouselab,8,204845,6
mouselab,False,[],"[[3, 7, 5, 4, 3], [5, 2, 6, 6, 6], [6, 6, 9, 6, 2], [9, 5, 6, 8, 5], [4, 6, 2, 2, 5]]","[[2, 0, 2, 2, 2], [2, 0, 2, 2, 2], [2, 2, 0, 2, 2], [0, 2, 2, 2, 2], [2, 0, 0, 2, 2]]","[1, 3, 3, 14, 9]",22,5,1,0.052,0.052,0.0,[],0,extreme,5,5,1160,0,155,155,attentional-mouselab,9,207983,6
mouselab,False,[],"[[6, 3, 3, 5, 5], [6, 5, 7, 4, 5], [4, 4, 2, 7, 9], [7, 5, 5, 6, 4], [6, 7, 6, 2, 4]]","[[0, 2, 2, 0, 2], [2, 2, 2, 2, 2], [2, 2, 0, 2, 0], [2, 2, 2, 2, 2], [0, 2, 2, 0, 2]]","[5, 1, 13, 10, 1]",22,6,0,0.055,0.055,0.0,[],0,extreme,5,5,5223,0,164,164,attentional-mouselab,10,215549,6
mouselab,False,[],"[[2, 5, 8, 4, 7], [10, 6, 6, 2, 6], [4, 7, 3, 7, 5], [3, 4, 7, 8, 5], [6, 2, 6, 4, 5]]","[[2, 2, 0, 0, 2], [0, 2, 2, 2, 2], [2, 2, 2, 2, 0], [0, 2, 2, 0, 2], [2, 2, 2, 2, 2]]","[15, 7, 6, 1, 1]",20,7,0,0.044,0.044,0.0,[],0,greedy,5,5,2597,0,133,133,attentional-mouselab,11,220485,6
mouselab,False,[],"[[5, 3, 9, 7, 4], [7, 7, 5, 6, 5], [4, 7, 3, 2, 7], [2, 4, 5, 2, 3], [6, 5, 4, 5, 0]]","[[2, 2, 0, 0, 2], [0, 0, 2, 0, 2], [2, 2, 2, 2, 2], [2, 2, 2, 2, 2], [2, 2, 2, 2, 0]]","[10, 3, 9, 2, 6]",14,8,2,0.055,0.055,0.0,[],0,greedy,5,5,1412,0,166,166,attentional-mouselab,12,224475,6
mouselab,False,[],"[[4, 3, 5, 9, 6], [5, 4, 2, 6, 4], [7, 3, 6, 9, 4], [5, 7, 3, 5, 4], [5, 2, 5, 5, 4]]","[[2, 2, 0, 2, 2], [0, 2, 2, 2, 2], [0, 2, 0, 0, 2], [2, 0, 2, 2, 2], [2, 2, 2, 2, 2]]","[8, 6, 3, 11, 2]",14,9,1,0.046,0.046,0.0,[],0,greedy,5,5,2144,0,138,138,attentional-mouselab,13,228818,6
mouselab,False,[],"[[6, 7, 3, 6, 6], [5, 6, 4, 6, 5], [5, 5, 5, 4, 6], [6, 3, 7, 5, 0], [4, 5, 4, 7, 2]]","[[2, 0, 0, 2, 2], [2, 2, 2, 2, 2], [2, 0, 0, 2, 2], [2, 2, 2, 2, 0], [2, 2, 2, 2, 0]]","[5, 6, 4, 2, 13]",14,10,4,0.037,0.037,0.0,[],0,extreme,5,5,2281,0,110,110,attentional-mouselab,14,237075,6
mouselab,False,[],"[[4, 5, 8, 3, 6], [7, 7, 5, 4, 4], [4, 4, 5, 4, 1], [7, 2, 5, 5, 6], [4, 4, 4, 4, 5]]","[[2, 2, 0, 2, 2], [0, 0, 2, 2, 2], [2, 2, 2, 2, 0], [2, 0, 2, 2, 2], [2, 0, 2, 2, 2]]","[14, 4, 8, 3, 1]",20,11,2,0.064,0.064,0.0,[],0,extreme,5,5,3101,0,191,191,attentional-mouselab,15,242343,6
mouselab,False,[],"[[6, 4, 7, 5, 2], [2, 4, 5, 8, 6], [8, 2, 3, 3, 6], [3, 5, 3, 5, 6], [6, 6, 5, 7, 6]]","[[2, 2, 2, 2, 2], [0, 2, 2, 0, 2], [2, 2, 2, 2, 2], [0, 2, 0, 2, 2], [2, 0, 2, 0, 2]]","[1, 2, 9, 14, 4]",22,12,1,0.041,0.041,0.0,[],0,random,5,5,2224,0,124,124,attentional-mouselab,16,246494,6
mouselab,False,"[22, 22, 20, 20, 23, 23, 24, 24, 21, 21]","[[5, 2, 2, 7, 4], [6, 4, 3, 7, 5], [7, 2, 1, 6, 7], [7, 5, 5, 8, 5], [6, 5, 2, 5, 5]]","[[0, 0, 2, 2, 2], [2, 2, 2, 2, 2], [2, 2, 2, 0, 0], [0, 2, 2, 0, 2], [0, 0, 0, 0, 0]]","[11, 3, 2, 2, 12]",22,13,0,0.058,0.05466666666666667,0.0033333333333333335,"[22, 20, 23, 24, 21]",5,random,5,5,10277,10,173,163,attentional-mouselab,17,258398,6
mouselab,False,[],"[[4, 8, 5, 3, 5], [8, 5, 7, 6, 3], [8, 5, 6, 5, 3], [2, 5, 8, 5, 8], [6, 6, 3, 6, 5]]","[[2, 0, 2, 2, 0], [2, 2, 2, 2, 2], [2, 2, 2, 2, 2], [0, 2, 0, 2, 0], [2, 2, 2, 2, 0]]","[4, 5, 3, 7, 11]",12,14,4,0.052,0.052,0.0,[],0,random,5,5,3212,0,155,155,attentional-mouselab,18,263297,6
mouselab,False,[],"[[6, 2, 5, 3, 7], [8, 7, 5, 5, 4], [6, 6, 6, 5, 3], [5, 6, 0, 9, 6], [8, 2, 4, 5, 6]]","[[2, 2, 2, 2, 2], [2, 2, 0, 0, 0], [2, 2, 2, 2, 2], [2, 0, 2, 2, 0], [2, 2, 2, 2, 0]]","[2, 9, 6, 12, 1]",18,15,2,0.032,0.032,0.0,[],0,random,5,5,1160,0,95,95,attentional-mouselab,19,265931,6
mouselab,False,[],"[[6, 4, 3, 5, 2], [3, 4, 6, 4, 5], [4, 6, 3, 6, 5], [7, 3, 7, 2, 1], [2, 4, 7, 6, 3]]","[[0, 2, 2, 2, 0], [0, 2, 2, 2, 2], [2, 0, 2, 2, 2], [2, 2, 2, 0, 2], [2, 2, 2, 2, 0]]","[2, 12, 6, 9, 1]",18,16,0,0.046,0.046,0.0,[],0,greedy,5,5,1228,0,137,137,attentional-mouselab,20,268529,6
mouselab,False,[],"[[4, 6, 6, 4, 2], [9, 6, 3, 5, 2], [6, 6, 6, 3, 3], [5, 5, 5, 2, 3], [4, 5, 7, 4, 5]]","[[2, 2, 2, 2, 0], [0, 2, 2, 2, 2], [2, 2, 2, 2, 0], [2, 2, 0, 2, 0], [2, 2, 0, 2, 2]]","[13, 3, 3, 5, 6]",14,17,3,0.037,0.037,0.0,[],0,greedy,5,5,1320,0,110,110,attentional-mouselab,21,271471,6
mouselab,True,[],"[[4, 6, 7, 5, 3], [3, 6, 6, 5, 5], [5, 5, 7, 5, 3], [6, 6, 4, 7, 8], [5, 3, 5, 4, 5]]","[[2, 0, 0, 2, 0], [2, 2, 0, 2, 2], [2, 2, 2, 2, 2], [2, 2, 2, 2, 0], [2, 2, 0, 2, 2]]","[1, 7, 9, 3, 10]",16,1,2,0.058,0.058,0.0,[],0,random,5,5,5597,0,174,174,attentional-mouselab,4,142568,7
mouselab,True,[],"[[8, 6, 7, 7, 5], [4, 5, 6, 2, 5], [6, 7, 7, 8, 5], [6, 5, 7, 8, 5], [7, 4, 1, 6, 6]]","[[0, 2, 2, 0, 2], [0, 2, 2, 2, 2], [2, 2, 0, 0, 2], [2, 2, 2, 2, 2], [2, 0, 2, 2, 2]]","[1, 4, 4, 17, 4]",22,2,3,0.069,0.069,0.0,[],0,random,5,5,2761,0,207,207,attentional-mouselab,5,147150,7
mouselab,False,[],"[[3, 3, 8, 4, 6], [5, 3, 6, 5, 1], [4, 5, 5, 7, 5], [7, 7, 6, 5, 6], [5, 6, 8, 4, 5]]","[[2, 2, 2, 2, 0], [2, 2, 2, 0, 2], [0, 0, 0, 2, 2], [2, 2, 2, 2, 0], [2, 2, 2, 2, 2]]","[1, 12, 4, 4, 9]",18,3,1,0.047,0.047,0.0,[],0,random,5,5,5812,0,141,141,attentional-mouselab,7,156315,7
mouselab,False,[],"[[6, 5, 2, 4, 6], [6, 4, 4, 4, 3], [9, 3, 3, 7, 4], [3, 3, 4, 5, 8], [4, 7, 5, 4, 5]]","[[0, 0, 2, 2, 2], [2, 2, 2, 2, 2], [0, 0, 2, 2, 2], [2, 0, 2, 2, 2], [0, 2, 2, 2, 2]]","[16, 4, 1, 2, 7]",22,4,0,0.054,0.054,0.0,[],0,random,5,5,3235,0,163,163,attentional-mouselab,8,162272,7
mouselab,False,[],"[[5, 5, 2, 6, 7], [4, 4, 3, 4, 7], [3, 4, 5, 7, 5], [6, 6, 4, 7, 4], [6, 5, 3, 5, 4]]","[[2, 2, 2, 2, 2], [2, 2, 0, 2, 2], [2, 2, 2, 2, 0], [0, 0, 2, 0, 2], [2, 2, 0, 2, 2]]","[3, 9, 10, 5, 3]",14,5,4,0.055,0.055,0.0,[],0,greedy,5,5,1354,0,166,166,attentional-mouselab,9,165090,7
mouselab,False,[],"[[4, 3, 5, 2, 5], [4, 0, 6, 4, 4], [8, 6, 6, 4, 2], [4, 5, 6, 6, 5], [6, 3, 8, 6, 7]]","[[2, 0, 2, 0, 2], [2, 2, 2, 0, 0], [2, 2, 2, 2, 2], [2, 0, 0, 2, 2], [2, 2, 2, 2, 2]]","[1, 16, 3, 1, 9]",26,6,2,0.066,0.066,0.0,[],0,random,5,5,1368,0,197,197,attentional-mouselab,10,167368,7
mouselab,False,[],"[[4, 5, 5, 4, 2], [5, 4, 6, 4, 5], [5, 4, 7, 4, 8], [3, 5, 5, 5, 6], [2, 4, 4, 8, 2]]","[[2, 2, 2, 0, 2], [2, 2, 2, 2, 0], [0, 2, 2, 2, 2], [0, 2, 2, 0, 2], [2, 0, 2, 2, 2]]","[5, 6, 4, 9, 6]",6,7,1,0.045,0.045,0.0,[],0,random,5,5,869,0,134,134,attentional-mouselab,11,169428,7
mouselab,False,[],"[[5, 1, 7, 8, 4], [3, 7, 2, 8, 4], [3, 6, 5, 6, 7], [8, 3, 5, 7, 9], [4, 7, 4, 5, 3]]","[[2, 2, 2, 2, 2], [2, 0, 2, 2, 2], [2, 2, 2, 0, 2], [0, 2, 2, 0, 0], [2, 2, 0, 2, 2]]","[6, 1, 3, 17, 3]",22,8,0,0.063,0.063,0.0,[],0,greedy,5,5,1057,0,190,190,attentional-mouselab,12,171581,7
mouselab,False,[],"[[4, 4, 6, 5, 5], [4, 3, 3, 5, 3], [6, 3, 7, 3, 7], [8, 8, 4, 4, 5], [6, 5, 7, 4, 3]]","[[2, 2, 2, 2, 0], [2, 0, 0, 2, 0], [2, 2, 2, 2, 2], [0, 0, 2, 2, 2], [2, 2, 2, 2, 2]]","[14, 7, 2, 3, 4]",18,9,3,0.046,0.046,0.0,[],0,extreme,5,5,1654,0,139,139,attentional-mouselab,13,174261,7
mouselab,False,[],"[[7, 4, 8, 5, 3], [8, 4, 1, 6, 8], [2, 6, 1, 5, 4], [7, 2, 5, 6, 6], [4, 7, 7, 5, 2]]","[[2, 2, 2, 2, 2], [0, 2, 2, 0, 2], [2, 0, 2, 2, 0], [0, 2, 2, 0, 2], [2, 2, 2, 2, 2]]","[1, 8, 6, 10, 5]",12,10,2,0.036,0.036,0.0,[],0,random,5,5,860,0,107,107,attentional-mouselab,14,177790,7
mouselab,False,[],"[[7, 4, 6, 6, 7], [4, 4, 4, 4, 5], [3, 6, 2, 7, 6], [3, 7, 7, 3, 5], [6, 3, 5, 4, 4]]","[[0, 2, 2, 2, 0], [2, 0, 2, 2, 2], [0, 2, 0, 0, 2], [2, 2, 2, 2, 2], [2, 2, 2, 2, 2]]","[7, 2, 3, 9, 9]",14,11,1,0.048,0.048,0.0,[],0,extreme,5,5,724,0,144,144,attentional-mouselab,15,179305,7
mouselab,False,[],"[[6, 6, 7, 3, 6], [5, 4, 6, 2, 5], [4, 6, 6, 3, 8], [7, 5, 3, 8, 5], [7, 3, 5, 6, 7]]","[[2, 2, 0, 2, 2], [2, 2, 2, 0, 2], [2, 2, 2, 2, 0], [2, 2, 2, 0, 0], [2, 2, 2, 2, 0]]","[16, 4, 3, 5, 2]",20,12,0,0.059,0.059,0.0,[],0,extreme,5,5,789,0,177,177,attentional-mouselab,16,181684,7
mouselab,False,[],"[[5, 3, 8, 6, 5], [7, 5, 6, 6, 4], [4, 7, 5, 5, 4], [8, 5, 7, 6, 6], [7, 3, 3, 8, 7]]","[[2, 2, 2, 2, 2], [2, 2, 0, 2, 2], [2, 2, 2, 2, 0], [0, 2, 0, 0, 2], [2, 2, 2, 0, 2]]","[3, 5, 8, 13, 1]",18,13,3,0.058,0.058,0.0,[],0,greedy,5,5,1548,0,174,174,attentional-mouselab,17,184133,7
mouselab,False,[],"[[5, 8, 4, 4, 5], [5, 5, 5, 5, 5], [4, 2, 3, 4, 6], [7, 4, 7, 5, 8], [4, 3, 3, 5, 5]]","[[2, 0, 2, 2, 2], [2, 2, 2, 0, 2], [2, 0, 2, 0, 2], [2, 2, 2, 2, 0], [2, 2, 2, 2, 0]]","[3, 5, 9, 8, 5]",10,14,4,0.061,0.061,0.0,[],0,extreme,5,5,1549,0,183,183,attentional-mouselab,18,186598,7
mouselab,False,[],"[[5, 6, 5, 5, 5], [3, 4, 4, 4, 7], [5, 9, 4, 3, 1], [5, 4, 3, 5, 6], [5, 4, 5, 5, 7]]","[[2, 2, 2, 2, 2], [0, 2, 2, 2, 0], [2, 0, 2, 2, 0], [2, 2, 0, 2, 2], [2, 2, 2, 2, 0]]","[2, 3, 8, 13, 4]",18,15,4,0.048,0.048,0.0,[],0,extreme,5,5,1233,0,145,145,attentional-mouselab,19,188983,7
mouselab,False,[],"[[4, 5, 4, 6, 5], [3, 4, 8, 5, 4], [8, 7, 6, 6, 7], [4, 5, 4, 7, 2], [5, 7, 9, 2, 2]]","[[2, 2, 2, 2, 2], [2, 2, 2, 2, 2], [0, 0, 0, 0, 0], [2, 2, 2, 2, 0], [2, 2, 2, 2, 2]]","[9, 3, 10, 4, 4]",14,16,4,0.048,0.048,0.0,[],0,greedy,5,5,1511,0,143,143,attentional-mouselab,20,191621,7
mouselab,False,[],"[[8, 7, 5, 7, 6], [4, 6, 6, 5, 3], [6, 7, 5, 4, 6], [7, 7, 6, 6, 6], [5, 5, 5, 4, 7]]","[[0, 0, 2, 0, 2], [2, 2, 2, 2, 2], [2, 2, 2, 0, 2], [2, 2, 2, 2, 2], [2, 2, 0, 2, 0]]","[9, 1, 6, 11, 3]",16,17,2,0.054,0.054,0.0,[],0,greedy,5,5,1203,0,162,162,attentional-mouselab,21,193655,7
mouselab,True,[],"[[8, 5, 5, 8, 3], [6, 5, 3, 7, 6], [4, 7, 0, 3, 5], [6, 4, 5, 2, 3], [4, 5, 6, 5, 3]]","[[2, 2, 2, 2, 2], [0, 2, 2, 2, 0], [2, 2, 2, 2, 2], [0, 2, 2, 0, 2], [2, 0, 2, 0, 2]]","[5, 2, 10, 9, 4]",14,1,1,0.054,0.054,0.0,[],0,random,5,5,3393,0,161,161,attentional-mouselab,4,172464,8
mouselab,True,[],"[[5, 5, 8, 3, 5], [5, 3, 4, 5, 7], [5, 5, 7, 4, 2], [4, 4, 5, 4, 4], [6, 7, 1, 0, 3]]","[[0, 2, 2, 0, 2], [2, 0, 2, 2, 0], [2, 2, 2, 2, 2], [0, 2, 2, 2, 2], [2, 2, 0, 2, 2]]","[16, 5, 5, 2, 2]",20,2,0,0.05,0.05,0.0,[],0,random,5,5,3690,0,150,150,attentional-mouselab,5,181667,8
mouselab,False,[],"[[4, 6, 6, 3, 6], [8, 4, 4, 7, 3], [4, 5, 7, 3, 6], [4, 2, 7, 6, 3], [6, 4, 7, 7, 3]]","[[2, 2, 2, 0, 2], [0, 2, 2, 2, 2], [2, 2, 2, 2, 2], [2, 0, 2, 0, 2], [2, 2, 0, 0, 2]]","[5, 6, 10, 5, 4]",8,3,0,0.051,0.051,0.0,[],0,extreme,5,5,3696,0,152,152,attentional-mouselab,7,192728,8
mouselab,False,[],"[[3, 4, 5, 4, 6], [6, 5, 4, 5, 7], [8, 6, 6, 3, 5], [5, 7, 4, 5, 6], [2, 4, 2, 4, 5]]","[[2, 0, 2, 2, 2], [2, 2, 2, 2, 2], [0, 2, 2, 0, 2], [2, 2, 2, 2, 2], [0, 0, 0, 2, 2]]","[19, 1, 1, 3, 6]",26,4,0,0.033,0.033,0.0,[],0,extreme,5,5,2274,0,98,98,attentional-mouselab,8,197762,8
mouselab,False,[],"[[5, 4, 5, 6, 6], [5, 4, 8, 3, 6], [4, 6, 2, 2, 4], [4, 8, 6, 5, 7], [6, 1, 3, 6, 2]]","[[2, 2, 2, 2, 2], [2, 2, 0, 2, 2], [2, 2, 0, 0, 2], [2, 2, 2, 2, 2], [2, 0, 0, 2, 0]]","[4, 4, 11, 6, 5]",10,5,2,0.042,0.042,0.0,[],0,extreme,5,5,8390,0,125,125,attentional-mouselab,9,208116,8
mouselab,False,[],"[[7, 1, 7, 5, 9], [6, 6, 8, 6, 5], [6, 2, 5, 6, 4], [5, 6, 8, 4, 6], [7, 6, 4, 7, 3]]","[[2, 0, 2, 0, 0], [2, 2, 2, 2, 0], [2, 2, 2, 2, 2], [2, 2, 2, 2, 2], [0, 2, 2, 2, 0]]","[6, 1, 12, 5, 6]",12,6,4,0.052,0.052,0.0,[],0,random,5,5,28721,0,155,155,attentional-mouselab,10,238525,8
mouselab,False,[],"[[4, 4, 6, 1, 2], [6, 5, 4, 8, 3], [7, 5, 5, 6, 6], [4, 7, 7, 7, 5], [4, 6, 7, 6, 7]]","[[2, 2, 2, 0, 2], [2, 2, 2, 2, 2], [2, 0, 2, 2, 2], [2, 0, 0, 2, 0], [2, 2, 2, 2, 0]]","[1, 18, 2, 5, 4]",24,7,4,0.04,0.04,0.0,[],0,greedy,5,5,7633,0,121,121,attentional-mouselab,11,247575,8
mouselab,False,[],"[[3, 6, 6, 6, 7], [4, 3, 5, 5, 6], [7, 4, 4, 6, 5], [5, 3, 7, 3, 5], [3, 5, 3, 4, 4]]","[[0, 2, 2, 2, 0], [2, 0, 0, 2, 2], [2, 2, 2, 2, 2], [2, 0, 2, 2, 2], [2, 2, 0, 2, 2]]","[3, 6, 7, 12, 2]",14,8,4,0.053,0.053,0.0,[],0,extreme,5,5,2099,0,160,160,attentional-mouselab,12,250947,8
mouselab,False,[],"[[5, 6, 5, 8, 5], [5, 5, 5, 4, 6], [5, 7, 4, 4, 6], [4, 6, 4, 5, 5], [5, 4, 7, 5, 5]]","[[2, 2, 0, 0, 2], [2, 2, 2, 2, 2], [2, 0, 2, 2, 0], [2, 2, 2, 2, 2], [2, 2, 0, 2, 0]]","[2, 8, 17, 2, 1]",26,9,2,0.044,0.044,0.0,[],0,greedy,5,5,3728,0,133,133,attentional-mouselab,13,256039,8
mouselab,False,[],"[[6, 5, 7, 5, 7], [6, 4, 4, 3, 5], [5, 5, 5, 5, 4], [7, 7, 6, 10, 6], [4, 8, 4, 2, 4]]","[[2, 2, 0, 2, 0], [2, 2, 2, 2, 0], [2, 2, 2, 2, 0], [0, 2, 2, 2, 2], [2, 2, 0, 2, 2]]","[15, 3, 6, 4, 2]",18,10,4,0.059,0.059,0.0,[],0,random,5,5,1814,0,176,176,attentional-mouselab,14,259596,8
mouselab,False,"[12, 12]","[[6, 2, 6, 5, 6], [5, 9, 8, 5, 7], [7, 0, 4, 8, 2], [5, 5, 6, 6, 4], [4, 3, 7, 7, 5]]","[[0, 2, 0, 2, 2], [2, 2, 2, 0, 2], [2, 2, 0, 2, 2], [2, 2, 2, 0, 0], [2, 2, 0, 2, 2]]","[1, 2, 22, 4, 1]",32,11,2,0.047,0.04633333333333333,0.0006666666666666666,[12],1,random,5,5,8427,2,141,139,attentional-mouselab,15,269543,8
mouselab,False,[],"[[4, 5, 6, 6, 4], [3, 5, 3, 8, 3], [7, 8, 4, 4, 4], [8, 5, 1, 5, 7], [4, 5, 8, 4, 3]]","[[2, 2, 2, 2, 0], [2, 2, 2, 2, 2], [0, 2, 2, 2, 0], [2, 0, 2, 2, 2], [2, 2, 2, 0, 0]]","[8, 6, 7, 8, 1]",10,12,4,0.046,0.046,0.0,[],0,random,5,5,1829,0,137,137,attentional-mouselab,16,273177,8
mouselab,False,[],"[[6, 5, 9, 6, 7], [5, 8, 1, 7, 4], [5, 6, 4, 8, 6], [6, 5, 5, 5, 2], [6, 5, 5, 6, 9]]","[[2, 2, 0, 2, 2], [2, 2, 0, 2, 2], [2, 2, 2, 2, 2], [2, 0, 0, 0, 2], [2, 2, 2, 2, 0]]","[6, 3, 2, 5, 14]",16,13,2,0.053,0.053,0.0,[],0,greedy,5,5,1772,0,160,160,attentional-mouselab,17,276970,8
mouselab,False,[],"[[3, 6, 8, 4, 6], [7, 4, 6, 4, 5], [5, 2, 4, 5, 5], [4, 8, 5, 5, 6], [4, 5, 3, 4, 10]]","[[2, 0, 2, 2, 2], [2, 0, 0, 2, 0], [2, 2, 2, 2, 2], [2, 2, 2, 2, 2], [0, 2, 0, 2, 2]]","[2, 11, 9, 1, 7]",18,14,1,0.039,0.039,0.0,[],0,random,5,5,2249,0,117,117,attentional-mouselab,18,280890,8
mouselab,False,[],"[[7, 2, 2, 5, 5], [4, 6, 3, 7, 6], [4, 6, 5, 3, 8], [6, 3, 5, 6, 5], [5, 6, 8, 3, 4]]","[[0, 0, 2, 2, 0], [2, 2, 2, 0, 2], [2, 2, 2, 2, 2], [2, 2, 2, 2, 0], [2, 2, 0, 2, 2]]","[6, 3, 16, 3, 2]",20,15,4,0.066,0.066,0.0,[],0,greedy,5,5,4262,0,199,199,attentional-mouselab,19,286490,8
mouselab,False,[],"[[3, 5, 3, 2, 8], [6, 7, 3, 3, 8], [4, 6, 2, 7, 7], [5, 7, 4, 4, 8], [3, 4, 5, 6, 7]]","[[2, 2, 0, 2, 2], [2, 2, 0, 2, 2], [2, 2, 2, 0, 2], [2, 0, 0, 2, 0], [2, 2, 2, 2, 2]]","[3, 2, 14, 5, 6]",16,16,2,0.031,0.031,0.0,[],0,greedy,5,5,1963,0,93,93,attentional-mouselab,20,289998,8
mouselab,False,[],"[[4, 6, 5, 5, 4], [3, 3, 4, 3, 5], [3, 5, 5, 6, 5], [5, 3, 2, 4, 8], [4, 6, 3, 6, 5]]","[[2, 2, 2, 2, 2], [0, 0, 2, 0, 2], [2, 2, 2, 2, 2], [2, 2, 0, 2, 0], [0, 2, 2, 2, 2]]","[5, 2, 5, 6, 12]",12,17,0,0.04,0.04,0.0,[],0,extreme,5,5,3078,0,119,119,attentional-mouselab,21,294324,8
mouselab,True,"[22, 22]","[[7, 7, 5, 8, 5], [5, 4, 4, 7, 5], [6, 8, 8, 5, 1], [0, 6, 7, 7, 6], [1, 3, 7, 5, 5]]","[[2, 2, 0, 2, 2], [2, 2, 2, 2, 2], [2, 2, 0, 0, 0], [2, 2, 2, 2, 2], [0, 0, 0, 2, 2]]","[3, 5, 6, 4, 12]",12,1,2,0.065,0.06433333333333334,0.0006666666666666666,[22],1,random,5,5,10954,2,195,193,attentional-mouselab,4,129372,9
mouselab,True,"[9, 9, 7, 7]","[[6, 6, 8, 3, 4], [8, 3, 6, 4, 4], [8, 8, 8, 6, 5], [6, 6, 6, 7, 5], [2, 5, 7, 3, 8]]","[[2, 0, 2, 2, 2], [0, 2, 0, 0, 0], [2, 2, 2, 2, 2], [0, 2, 2, 2, 2], [0, 2, 0, 2, 2]]","[3, 11, 2, 2, 12]",22,2,2,0.067,0.06566666666666666,0.0013333333333333333,"[9, 7]",2,random,5,5,14818,4,202,198,attentional-mouselab,5,146111,9
mouselab,False,"[17, 17, 15, 15, 16, 16]","[[4, 6, 3, 7, 4], [4, 4, 4, 5, 3], [2, 2, 7, 5, 3], [3, 4, 2, 6, 7], [6, 3, 4, 3, 4]]","[[2, 0, 2, 2, 2], [2, 0, 2, 0, 0], [2, 2, 2, 2, 0], [0, 0, 0, 2, 2], [2, 2, 2, 2, 0]]","[7, 4, 3, 10, 6]",10,3,1,0.041,0.039,0.002,"[17, 15, 16]",3,random,5,5,11337,6,122,116,attentional-mouselab,7,164053,9
mouselab,False,"[21, 21, 17, 17]","[[5, 4, 5, 4, 4], [8, 5, 4, 2, 3], [5, 6, 4, 4, 5], [6, 6, 5, 1, 6], [6, 6, 8, 5, 5]]","[[2, 2, 2, 2, 2], [0, 2, 2, 0, 2], [2, 2, 2, 2, 2], [2, 2, 0, 0, 0], [0, 0, 2, 2, 0]]","[3, 3, 6, 9, 9]",12,4,4,0.05,0.04866666666666667,0.0013333333333333333,"[21, 17]",2,extreme,5,5,21545,4,150,146,attentional-mouselab,8,187530,9
mouselab,False,"[21, 21]","[[2, 1, 4, 5, 5], [5, 5, 4, 8, 3], [3, 6, 8, 6, 4], [4, 6, 5, 2, 5], [3, 2, 8, 5, 6]]","[[2, 2, 0, 0, 2], [2, 2, 2, 2, 0], [2, 2, 0, 2, 2], [2, 2, 0, 2, 2], [2, 0, 0, 2, 2]]","[11, 4, 2, 2, 11]",20,5,2,0.058,0.05733333333333333,0.0006666666666666666,[21],1,random,5,5,14053,2,174,172,attentional-mouselab,9,202852,9
mouselab,False,"[15, 15, 16, 16, 18, 18]","[[7, 3, 7, 2, 4], [3, 4, 7, 4, 8], [5, 4, 0, 6, 10], [6, 6, 4, 3, 5], [6, 9, 8, 4, 2]]","[[2, 2, 2, 0, 2], [2, 2, 2, 2, 2], [2, 2, 0, 2, 0], [0, 0, 0, 0, 0], [2, 0, 2, 2, 2]]","[3, 3, 2, 20, 2]",28,6,0,0.057,0.055,0.002,"[15, 16, 18]",3,extreme,5,5,15410,6,172,166,attentional-mouselab,10,219785,9
mouselab,False,"[11, 11]","[[6, 1, 5, 3, 1], [7, 4, 4, 4, 2], [9, 8, 4, 3, 6], [7, 5, 7, 5, 4], [6, 5, 9, 6, 6]]","[[2, 2, 2, 2, 2], [2, 2, 0, 2, 2], [2, 0, 2, 2, 2], [0, 2, 2, 0, 2], [0, 2, 0, 0, 2]]","[5, 3, 12, 7, 3]",14,7,1,0.054,0.05333333333333333,0.0006666666666666666,[11],1,random,5,5,13271,2,163,161,attentional-mouselab,11,234740,9
mouselab,False,"[10, 10, 13, 13, 11, 11, 14, 14]","[[4, 4, 6, 3, 7], [4, 3, 7, 8, 9], [4, 4, 5, 6, 5], [5, 6, 4, 6, 6], [5, 7, 3, 6, 3]]","[[2, 2, 2, 0, 2], [2, 2, 0, 0, 0], [0, 0, 2, 0, 0], [2, 2, 2, 2, 2], [2, 0, 0, 2, 2]]","[1, 3, 14, 11, 1]",26,8,4,0.058,0.05533333333333334,0.0026666666666666666,"[10, 13, 11, 14]",4,greedy,5,5,24472,8,173,165,attentional-mouselab,12,260606,9
mouselab,False,"[10, 10, 11, 11, 14, 14]","[[8, 5, 6, 3, 4], [8, 6, 5, 2, 8], [5, 4, 4, 5, 7], [5, 4, 4, 5, 10], [7, 6, 7, 3, 4]]","[[2, 2, 2, 0, 2], [2, 2, 0, 0, 0], [0, 0, 2, 2, 0], [2, 2, 0, 2, 2], [0, 2, 2, 2, 2]]","[1, 4, 11, 2, 12]",22,9,4,0.06,0.057999999999999996,0.002,"[10, 11, 14]",3,random,5,5,12343,6,181,175,attentional-mouselab,13,274257,9
mouselab,False,"[0, 0, 2, 2, 5, 5, 1, 1, 4, 4]","[[6, 3, 4, 2, 7], [4, 4, 3, 3, 3], [7, 3, 3, 9, 4], [4, 6, 6, 4, 4], [4, 1, 3, 4, 5]]","[[0, 0, 0, 0, 0], [0, 2, 2, 2, 2], [2, 2, 2, 0, 0], [0, 2, 2, 0, 2], [2, 0, 2, 2, 2]]","[9, 8, 3, 5, 5]",10,10,4,0.048,0.04466666666666667,0.0033333333333333335,"[0, 2, 5, 1, 4]",5,extreme,5,5,16483,10,144,134,attentional-mouselab,14,292017,9
mouselab,False,"[13, 13, 13]","[[6, 3, 6, 5, 7], [5, 7, 6, 5, 6], [6, 4, 2, 8, 3], [4, 9, 3, 6, 5], [6, 5, 4, 3, 7]]","[[2, 2, 0, 2, 0], [2, 0, 2, 2, 2], [2, 2, 2, 0, 2], [2, 0, 0, 2, 2], [0, 2, 2, 2, 2]]","[1, 1, 12, 11, 5]",22,11,3,0.062,0.06133333333333333,0.0006666666666666666,[13],1,greedy,5,5,5015,2,187,185,attentional-mouselab,15,298635,9
mouselab,False,"[6, 6]","[[6, 7, 3, 6, 6], [5, 6, 4, 6, 5], [5, 5, 5, 4, 6], [6, 3, 7, 5, 0], [4, 5, 4, 7, 2]]","[[0, 0, 2, 0, 0], [2, 0, 2, 2, 2], [2, 0, 0, 2, 2], [2, 2, 2, 2, 2], [2, 2, 2, 2, 2]]","[1, 15, 6, 3, 5]",18,12,1,0.054,0.05333333333333333,0.0006666666666666666,[6],1,greedy,5,5,5015,2,161,159,attentional-mouselab,16,305136,9
mouselab,False,"[16, 16]","[[6, 5, 5, 5, 6], [6, 3, 4, 8, 2], [3, 3, 8, 4, 5], [3, 7, 5, 5, 5], [6, 6, 5, 2, 3]]","[[2, 2, 2, 2, 2], [2, 2, 2, 2, 0], [2, 2, 2, 0, 2], [0, 0, 2, 2, 0], [2, 2, 2, 0, 0]]","[2, 2, 5, 11, 10]",18,13,1,0.056,0.05533333333333333,0.0006666666666666666,[16],1,greedy,5,5,4576,2,168,166,attentional-mouselab,17,311200,9
mouselab,False,"[14, 14]","[[6, 4, 6, 4, 6], [6, 2, 3, 8, 6], [7, 7, 4, 8, 10], [4, 6, 7, 5, 6], [5, 5, 7, 5, 4]]","[[2, 2, 2, 2, 2], [2, 2, 2, 0, 2], [0, 0, 0, 2, 0], [2, 2, 2, 2, 2], [2, 0, 2, 0, 2]]","[2, 6, 18, 2, 2]",24,14,4,0.083,0.08233333333333334,0.0006666666666666666,[14],1,random,5,5,4941,2,248,246,attentional-mouselab,18,317458,9
mouselab,False,"[13, 13]","[[2, 5, 5, 3, 6], [5, 5, 4, 4, 6], [5, 3, 5, 6, 5], [9, 7, 7, 5, 4], [6, 4, 5, 8, 2]]","[[0, 2, 2, 2, 2], [2, 2, 2, 2, 2], [2, 0, 0, 0, 2], [0, 2, 2, 2, 2], [2, 2, 2, 0, 0]]","[5, 6, 7, 1, 11]",12,15,3,0.058,0.05733333333333333,0.0006666666666666666,[13],1,extreme,5,5,6109,2,174,172,attentional-mouselab,19,325341,9
mouselab,False,"[20, 20, 21, 21, 22, 22, 23, 23]","[[4, 6, 7, 5, 6], [4, 5, 8, 4, 5], [4, 6, 7, 2, 1], [4, 3, 5, 8, 8], [3, 5, 3, 8, 4]]","[[2, 0, 0, 2, 2], [2, 2, 2, 2, 2], [2, 2, 2, 0, 2], [2, 2, 2, 0, 0], [0, 0, 0, 0, 0]]","[4, 7, 4, 3, 12]",14,16,3,0.059,0.05633333333333333,0.0026666666666666666,"[20, 21, 22, 23]",4,greedy,5,5,8214,8,176,168,attentional-mouselab,20,334728,9
mouselab,False,"[15, 15, 17, 17, 19, 19, 16, 16]","[[6, 6, 9, 5, 3], [8, 6, 4, 5, 6], [5, 7, 8, 5, 7], [5, 4, 5, 1, 6], [1, 4, 5, 8, 10]]","[[2, 0, 0, 2, 2], [2, 0, 2, 2, 2], [2, 0, 2, 2, 2], [0, 0, 0, 0, 0], [2, 2, 2, 2, 0]]","[6, 1, 6, 15, 2]",18,17,4,0.059,0.05633333333333333,0.0026666666666666666,"[15, 17, 19, 16]",4,extreme,5,5,8903,8,176,168,attentional-mouselab,21,344775,9
mouselab,True,"[10, 10, 4, 4, 20, 20]","[[9, 6, 4, 5, 3], [6, 5, 3, 5, 8], [6, 7, 4, 4, 6], [6, 9, 4, 5, 0], [3, 2, 4, 4, 9]]","[[2, 0, 2, 2, 0], [2, 2, 2, 0, 2], [0, 0, 0, 2, 2], [2, 0, 2, 2, 2], [0, 2, 2, 0, 2]]","[5, 9, 5, 2, 9]",12,1,1,0.049,0.047,0.002,"[10, 4, 20]",3,random,5,5,31743,6,146,140,attentional-mouselab,4,322514,10
mouselab,True,"[5, 5, 10, 10, 13, 13]","[[2, 4, 4, 2, 2], [4, 6, 5, 6, 5], [4, 4, 4, 7, 5], [4, 3, 3, 7, 2], [3, 6, 5, 5, 6]]","[[2, 2, 0, 2, 2], [0, 2, 2, 0, 2], [0, 2, 0, 0, 2], [2, 0, 2, 0, 2], [2, 2, 2, 2, 0]]","[6, 2, 18, 1, 3]",24,2,3,0.057,0.055,0.002,"[5, 10, 13]",3,random,5,5,27633,6,172,166,attentional-mouselab,5,357720,10
mouselab,False,"[9, 9, 7, 7]","[[3, 3, 7, 4, 5], [4, 6, 5, 5, 5], [6, 7, 2, 5, 6], [7, 7, 6, 5, 7], [6, 2, 5, 4, 6]]","[[0, 0, 0, 2, 2], [2, 2, 0, 0, 0], [2, 2, 0, 2, 2], [2, 2, 2, 2, 2], [2, 0, 2, 2, 2]]","[4, 11, 7, 4, 4]",12,3,2,0.047,0.04566666666666667,0.0013333333333333333,"[9, 7]",2,extreme,5,5,19571,4,141,137,attentional-mouselab,7,387169,10
mouselab,False,"[16, 16, 19, 19, 15, 15]","[[6, 6, 3, 2, 6], [7, 6, 3, 7, 2], [7, 3, 4, 7, 8], [6, 5, 6, 6, 2], [7, 2, 6, 7, 1]]","[[2, 2, 0, 2, 0], [2, 2, 0, 2, 2], [0, 2, 2, 0, 0], [0, 0, 2, 2, 0], [2, 2, 2, 2, 2]]","[6, 4, 6, 13, 1]",14,4,0,0.064,0.062,0.002,"[16, 19, 15]",3,greedy,5,5,37282,6,191,185,attentional-mouselab,8,429014,10
mouselab,False,"[1, 1, 0, 0]","[[6, 5, 9, 6, 7], [5, 8, 1, 7, 4], [5, 6, 4, 8, 6], [6, 5, 5, 5, 2], [6, 5, 5, 6, 9]]","[[0, 0, 2, 2, 2], [0, 2, 2, 2, 2], [2, 2, 2, 2, 0], [2, 0, 0, 0, 2], [2, 0, 2, 2, 2]]","[13, 8, 7, 1, 1]",20,5,0,0.055,0.05366666666666667,0.0013333333333333333,"[1, 0]",2,random,5,5,24777,4,165,161,attentional-mouselab,9,457721,10
mouselab,False,"[24, 24, 10, 10]","[[8, 5, 6, 4, 5], [6, 5, 8, 5, 7], [5, 7, 6, 7, 8], [5, 4, 4, 6, 2], [3, 4, 5, 3, 4]]","[[2, 2, 2, 2, 2], [2, 2, 2, 2, 0], [0, 0, 0, 0, 0], [2, 2, 2, 0, 2], [2, 2, 2, 2, 0]]","[4, 3, 13, 3, 7]",16,6,4,0.06,0.058666666666666666,0.0013333333333333333,"[24, 10]",2,greedy,5,5,14610,4,179,175,attentional-mouselab,10,475503,10
mouselab,False,"[23, 23, 20, 20]","[[4, 6, 3, 4, 6], [6, 7, 5, 4, 7], [3, 1, 4, 5, 1], [6, 2, 5, 7, 7], [5, 2, 6, 5, 6]]","[[2, 2, 2, 2, 2], [0, 2, 2, 2, 2], [2, 0, 2, 2, 0], [2, 0, 2, 0, 2], [0, 2, 0, 0, 2]]","[3, 5, 5, 5, 12]",12,7,3,0.051,0.049666666666666665,0.0013333333333333333,"[23, 20]",2,extreme,5,5,24312,4,152,148,attentional-mouselab,11,501714,10
mouselab,False,"[9, 9, 24, 24, 19, 19, 7, 7]","[[5, 5, 4, 3, 4], [7, 7, 3, 6, 5], [7, 4, 5, 6, 3], [6, 6, 6, 7, 5], [3, 1, 5, 9, 6]]","[[2, 2, 2, 2, 2], [2, 2, 0, 2, 0], [2, 0, 0, 2, 2], [2, 2, 0, 2, 0], [0, 0, 0, 2, 0]]","[3, 8, 3, 7, 9]",12,8,4,0.05,0.04733333333333334,0.0026666666666666666,"[9, 24, 19, 7]",4,random,5,5,38632,8,150,142,attentional-mouselab,12,541885,10
mouselab,False,"[1, 1, 18, 18, 8, 8]","[[4, 6, 7, 7, 0], [3, 10, 5, 5, 3], [4, 1, 3, 3, 5], [5, 6, 6, 4, 5], [4, 3, 6, 5, 6]]","[[2, 0, 0, 0, 2], [2, 0, 2, 0, 2], [0, 2, 2, 0, 2], [2, 2, 2, 0, 2], [2, 2, 2, 2, 0]]","[16, 3, 3, 5, 3]",20,9,1,0.056,0.054,0.002,"[1, 18, 8]",3,greedy,5,5,38736,6,168,162,attentional-mouselab,13,582121,10
mouselab,False,"[12, 12, 6, 6, 7, 7]","[[4, 6, 7, 4, 4], [6, 3, 4, 9, 4], [5, 7, 4, 5, 3], [2, 6, 5, 2, 5], [4, 6, 2, 5, 4]]","[[2, 2, 0, 0, 2], [2, 0, 0, 2, 2], [0, 0, 0, 0, 2], [0, 2, 2, 2, 2], [2, 2, 2, 2, 2]]","[1, 8, 18, 2, 1]",28,10,1,0.058,0.056,0.002,"[12, 6, 7]",3,random,5,5,28232,6,174,168,attentional-mouselab,14,612453,10
mouselab,False,"[9, 9, 7, 7]","[[6, 4, 5, 3, 7], [3, 6, 4, 7, 6], [5, 6, 8, 4, 5], [4, 3, 5, 4, 4], [6, 3, 8, 6, 5]]","[[2, 0, 2, 0, 0], [0, 2, 0, 0, 0], [2, 2, 2, 2, 2], [2, 2, 2, 2, 2], [2, 2, 2, 2, 0]]","[4, 12, 7, 3, 4]",14,11,3,0.053,0.051666666666666666,0.0013333333333333333,"[9, 7]",2,random,5,5,37213,4,160,156,attentional-mouselab,15,651344,10
mouselab,False,"[3, 3, 1, 1, 13, 13]","[[5, 4, 6, 3, 4], [4, 5, 3, 5, 5], [6, 4, 3, 4, 5], [5, 8, 8, 2, 5], [5, 4, 5, 5, 5]]","[[2, 0, 2, 0, 2], [2, 2, 0, 2, 2], [2, 0, 2, 0, 2], [2, 0, 0, 0, 2], [2, 2, 2, 0, 2]]","[11, 2, 10, 3, 4]",18,12,1,0.045,0.043,0.002,"[3, 1, 13]",3,extreme,5,5,21098,6,134,128,attentional-mouselab,16,673900,10
mouselab,False,"[1, 1, 2, 2]","[[4, 3, 7, 4, 5], [4, 4, 6, 6, 5], [3, 4, 5, 5, 3], [6, 8, 7, 3, 4], [5, 5, 6, 4, 5]]","[[0, 0, 0, 2, 2], [2, 0, 2, 2, 2], [2, 2, 2, 0, 2], [2, 0, 0, 2, 2], [2, 2, 2, 0, 2]]","[12, 4, 2, 6, 6]",12,13,2,0.065,0.06366666666666666,0.0013333333333333333,"[1, 2]",2,greedy,5,5,29231,4,196,192,attentional-mouselab,17,704687,10
mouselab,False,"[0, 0]","[[6, 3, 6, 5, 4], [4, 5, 7, 5, 3], [6, 7, 6, 6, 6], [6, 2, 6, 4, 8], [3, 5, 5, 5, 6]]","[[0, 0, 2, 2, 0], [0, 2, 2, 2, 2], [2, 2, 2, 2, 2], [0, 0, 2, 2, 0], [2, 2, 2, 2, 2]]","[20, 1, 2, 4, 3]",28,14,0,0.056,0.05533333333333333,0.0006666666666666666,[0],1,extreme,5,5,23994,2,169,167,attentional-mouselab,18,730355,10
mouselab,False,"[20, 20, 9, 9]","[[6, 7, 6, 8, 5], [7, 5, 3, 7, 5], [4, 4, 3, 7, 7], [6, 6, 7, 4, 3], [7, 1, 5, 5, 4]]","[[2, 0, 2, 0, 2], [0, 2, 2, 2, 0], [2, 2, 2, 2, 0], [2, 2, 0, 2, 2], [0, 0, 2, 2, 2]]","[1, 15, 2, 4, 8]",22,15,0,0.066,0.06466666666666666,0.0013333333333333333,"[20, 9]",2,extreme,5,5,35354,4,199,195,attentional-mouselab,19,767399,10
mouselab,False,"[6, 6, 7, 7]","[[5, 8, 4, 4, 5], [5, 5, 5, 5, 5], [4, 2, 3, 4, 6], [7, 4, 7, 5, 8], [4, 3, 3, 5, 5]]","[[2, 2, 2, 2, 2], [2, 0, 0, 0, 0], [2, 2, 0, 0, 2], [2, 2, 2, 2, 2], [0, 2, 2, 2, 0]]","[1, 20, 4, 2, 3]",28,16,4,0.053,0.051666666666666666,0.0013333333333333333,"[6, 7]",2,random,5,5,34240,4,160,156,attentional-mouselab,20,803163,10
mouselab,False,"[11, 11, 12, 12]","[[8, 8, 4, 5, 5], [7, 4, 9, 7, 3], [6, 2, 5, 5, 3], [3, 5, 4, 8, 6], [3, 6, 7, 3, 3]]","[[0, 0, 2, 2, 2], [2, 2, 0, 2, 2], [2, 0, 0, 2, 2], [2, 2, 2, 2, 0], [0, 0, 2, 2, 2]]","[3, 10, 11, 5, 1]",18,17,2,0.061,0.059666666666666666,0.0013333333333333333,"[11, 12]",2,greedy,5,5,32670,4,184,180,attentional-mouselab,21,837374,10
mouselab,True,"[19, 19]","[[8, 6, 7, 2, 6], [6, 4, 7, 3, 6], [5, 7, 4, 4, 10], [5, 3, 2, 4, 3], [2, 7, 7, 7, 5]]","[[2, 2, 0, 2, 2], [0, 0, 2, 2, 0], [2, 2, 2, 2, 0], [0, 2, 2, 2, 0], [2, 2, 2, 2, 2]]","[1, 4, 12, 7, 6]",14,1,4,0.067,0.06633333333333334,0.0006666666666666666,[19],1,random,5,5,15484,2,201,199,attentional-mouselab,4,210886,11
mouselab,True,"[18, 18]","[[1, 7, 4, 2, 4], [5, 4, 5, 7, 8], [7, 6, 4, 5, 1], [4, 9, 4, 6, 6], [6, 0, 6, 2, 5]]","[[2, 2, 2, 2, 2], [0, 2, 2, 0, 0], [2, 2, 2, 0, 2], [2, 2, 2, 0, 2], [2, 2, 2, 0, 0]]","[2, 5, 7, 9, 7]",10,2,3,0.047,0.04633333333333333,0.0006666666666666666,[18],1,random,5,5,18298,2,142,140,attentional-mouselab,5,231356,11
mouselab,False,[],"[[7, 7, 7, 8, 4], [4, 6, 5, 7, 5], [4, 6, 1, 9, 3], [3, 6, 5, 4, 6], [4, 4, 7, 8, 3]]","[[2, 2, 0, 0, 0], [2, 2, 2, 2, 2], [2, 2, 0, 0, 2], [2, 2, 2, 2, 2], [2, 2, 2, 0, 2]]","[4, 7, 10, 7, 2]",12,3,3,0.072,0.072,0.0,[],0,extreme,5,5,6572,0,215,215,attentional-mouselab,7,247296,11
mouselab,False,"[0, 0, 3, 3, 4, 4, 1, 1]","[[6, 6, 3, 5, 5], [5, 5, 6, 7, 1], [4, 2, 8, 7, 4], [5, 6, 6, 5, 6], [7, 4, 6, 6, 5]]","[[0, 0, 0, 0, 0], [2, 2, 2, 2, 2], [2, 2, 2, 2, 2], [2, 0, 0, 0, 0], [0, 2, 2, 2, 2]]","[12, 8, 2, 3, 5]",16,4,0,0.057,0.05433333333333334,0.0026666666666666666,"[0, 3, 4, 1]",4,greedy,5,5,20019,8,170,162,attentional-mouselab,8,270135,11
mouselab,False,"[11, 11, 13, 13, 14, 14]","[[4, 4, 3, 2, 4], [5, 5, 3, 4, 4], [4, 5, 5, 5, 2], [6, 7, 2, 7, 7], [6, 5, 6, 5, 3]]","[[0, 0, 2, 2, 2], [2, 2, 0, 2, 2], [2, 0, 2, 0, 0], [2, 0, 2, 0, 0], [2, 2, 2, 2, 2]]","[3, 3, 13, 8, 3]",18,5,1,0.054,0.052,0.002,"[11, 13, 14]",3,greedy,5,5,15833,6,163,157,attentional-mouselab,9,288004,11
mouselab,False,"[7, 7, 8, 8]","[[3, 5, 6, 7, 9], [6, 3, 4, 2, 5], [7, 3, 6, 4, 5], [6, 6, 3, 6, 4], [5, 7, 8, 5, 3]]","[[2, 0, 2, 0, 2], [0, 2, 0, 0, 0], [2, 2, 2, 2, 2], [2, 0, 2, 2, 0], [2, 2, 2, 2, 2]]","[3, 10, 3, 6, 8]",12,6,0,0.055,0.05366666666666667,0.0013333333333333333,"[7, 8]",2,random,5,5,14449,4,166,162,attentional-mouselab,10,304386,11
mouselab,False,"[6, 6, 8, 8]","[[5, 3, 4, 4, 5], [6, 4, 3, 5, 4], [4, 4, 5, 7, 5], [4, 7, 5, 4, 6], [9, 8, 2, 1, 4]]","[[2, 2, 0, 2, 2], [2, 0, 2, 0, 2], [2, 2, 2, 0, 2], [2, 0, 2, 2, 2], [0, 0, 2, 0, 2]]","[6, 10, 8, 3, 3]",12,7,3,0.048,0.04666666666666667,0.0013333333333333333,"[6, 8]",2,extreme,5,5,22865,4,145,141,attentional-mouselab,11,329311,11
mouselab,False,[],"[[2, 5, 5, 3, 6], [5, 5, 4, 4, 5], [5, 6, 4, 8, 4], [7, 10, 4, 5, 5], [4, 4, 6, 10, 4]]","[[2, 2, 0, 2, 0], [2, 2, 2, 2, 2], [2, 2, 0, 2, 2], [0, 0, 2, 2, 2], [2, 2, 2, 0, 2]]","[3, 10, 5, 3, 9]",14,8,3,0.065,0.065,0.0,[],0,greedy,5,5,7912,0,194,194,attentional-mouselab,12,339873,11
mouselab,False,"[11, 11, 12, 12, 13, 13]","[[3, 3, 1, 2, 5], [4, 4, 7, 7, 2], [6, 5, 6, 6, 1], [6, 8, 7, 4, 4], [6, 6, 6, 5, 7]]","[[2, 2, 0, 0, 2], [2, 2, 2, 2, 0], [0, 0, 0, 0, 0], [0, 2, 2, 2, 2], [2, 2, 2, 2, 2]]","[6, 1, 19, 3, 1]",26,9,0,0.053,0.051,0.002,"[11, 12, 13]",3,extreme,5,5,26431,6,160,154,attentional-mouselab,13,368658,11
mouselab,False,"[13, 13, 11, 11]","[[5, 5, 5, 6, 5], [7, 3, 6, 5, 7], [2, 5, 1, 6, 1], [3, 5, 3, 6, 8], [4, 7, 5, 4, 5]]","[[2, 2, 2, 2, 2], [2, 2, 2, 2, 2], [0, 0, 0, 0, 0], [2, 2, 2, 2, 2], [0, 2, 2, 0, 0]]","[4, 1, 14, 4, 7]",18,10,3,0.055,0.05366666666666667,0.0013333333333333333,"[13, 11]",2,extreme,5,5,16083,4,165,161,attentional-mouselab,14,386140,11
mouselab,False,[],"[[6, 5, 5, 5, 7], [8, 7, 6, 4, 5], [6, 5, 4, 8, 4], [7, 6, 8, 7, 3], [7, 5, 6, 3, 5]]","[[2, 0, 2, 2, 2], [0, 0, 2, 2, 2], [2, 2, 2, 2, 2], [2, 2, 0, 0, 2], [2, 2, 2, 0, 2]]","[8, 10, 2, 7, 3]",14,11,0,0.07,0.07,0.0,[],0,greedy,5,5,4421,0,210,210,attentional-mouselab,15,392042,11
mouselab,False,"[21, 21]","[[3, 6, 5, 4, 2], [2, 7, 6, 6, 4], [5, 4, 3, 5, 4], [6, 1, 4, 3, 6], [5, 6, 3, 6, 3]]","[[2, 2, 2, 2, 2], [2, 0, 0, 0, 2], [2, 2, 0, 2, 0], [2, 2, 2, 0, 2], [2, 0, 2, 2, 2]]","[3, 7, 2, 9, 9]",14,12,1,0.046,0.04533333333333333,0.0006666666666666666,[21],1,greedy,5,5,8700,2,138,136,attentional-mouselab,16,402945,11
mouselab,False,"[24, 24, 22, 22, 21, 21]","[[2, 8, 3, 6, 4], [4, 6, 6, 5, 2], [4, 5, 5, 10, 8], [2, 5, 6, 5, 4], [6, 7, 5, 6, 5]]","[[2, 0, 0, 0, 2], [2, 0, 2, 2, 2], [2, 2, 2, 2, 0], [2, 2, 2, 2, 0], [2, 0, 0, 2, 0]]","[10, 4, 2, 1, 13]",22,13,1,0.07,0.068,0.002,"[24, 22, 21]",3,random,5,5,11271,6,210,204,attentional-mouselab,17,416043,11
mouselab,False,"[20, 20]","[[3, 4, 3, 3, 5], [2, 5, 6, 5, 5], [3, 6, 9, 6, 3], [6, 6, 7, 7, 3], [6, 4, 5, 2, 6]]","[[2, 2, 2, 2, 2], [2, 2, 2, 2, 2], [2, 0, 0, 2, 0], [2, 0, 2, 2, 2], [0, 2, 2, 0, 0]]","[7, 1, 5, 6, 11]",12,14,0,0.047,0.04633333333333333,0.0006666666666666666,[20],1,random,5,5,13490,2,140,138,attentional-mouselab,18,432027,11
mouselab,False,"[5, 5, 8, 8, 7, 7]","[[5, 4, 5, 6, 4], [5, 3, 6, 6, 2], [7, 3, 4, 5, 5], [6, 6, 4, 1, 3], [7, 5, 7, 4, 7]]","[[2, 2, 2, 2, 2], [0, 0, 0, 0, 0], [0, 2, 2, 2, 2], [0, 0, 2, 0, 2], [2, 2, 2, 2, 2]]","[5, 10, 8, 5, 2]",12,15,3,0.048,0.046,0.002,"[5, 8, 7]",3,extreme,5,5,28877,6,143,137,attentional-mouselab,19,462909,11
mouselab,False,"[18, 18, 17, 17, 16, 16, 19, 19]","[[5, 5, 6, 8, 5], [7, 7, 5, 7, 3], [4, 1, 4, 3, 5], [0, 5, 4, 5, 7], [7, 6, 2, 4, 4]]","[[2, 2, 2, 2, 0], [2, 2, 2, 2, 2], [0, 0, 2, 0, 2], [0, 0, 0, 0, 0], [2, 2, 2, 2, 0]]","[3, 5, 8, 10, 4]",12,16,4,0.052,0.04933333333333333,0.0026666666666666666,"[18, 17, 16, 19]",4,random,5,5,27096,8,156,148,attentional-mouselab,20,492058,11
mouselab,False,[],"[[6, 6, 8, 5, 8], [5, 6, 6, 4, 3], [5, 6, 8, 6, 4], [5, 7, 6, 2, 4], [5, 2, 4, 3, 3]]","[[2, 2, 0, 2, 2], [2, 2, 2, 2, 0], [2, 0, 2, 2, 2], [2, 0, 2, 0, 2], [0, 2, 2, 2, 2]]","[1, 4, 8, 13, 4]",18,17,1,0.059,0.059,0.0,[],0,random,5,5,5022,0,177,177,attentional-mouselab,21,498740,11
mouselab,True,[],"[[6, 3, 6, 5, 7], [5, 7, 6, 5, 6], [6, 4, 2, 8, 3], [4, 9, 3, 6, 5], [6, 5, 4, 3, 7]]","[[2, 2, 2, 2, 2], [2, 0, 2, 0, 2], [2, 2, 2, 2, 2], [2, 2, 0, 0, 2], [0, 0, 2, 2, 2]]","[4, 1, 4, 1, 20]",28,1,0,0.059,0.059,0.0,[],0,random,5,5,3179,0,177,177,attentional-mouselab,4,88154,12
mouselab,True,[],"[[8, 6, 5, 5, 5], [3, 7, 4, 5, 4], [5, 7, 3, 5, 4], [7, 3, 8, 5, 6], [3, 5, 6, 5, 5]]","[[0, 0, 0, 2, 0], [2, 2, 2, 2, 2], [2, 0, 2, 2, 2], [2, 2, 2, 2, 2], [2, 2, 2, 2, 0]]","[5, 3, 8, 2, 12]",16,2,1,0.058,0.058,0.0,[],0,random,5,5,2664,0,173,173,attentional-mouselab,5,92801,12
mouselab,False,[],"[[5, 5, 6, 8, 5], [7, 7, 5, 7, 3], [4, 1, 4, 3, 5], [0, 5, 4, 5, 7], [7, 6, 2, 4, 4]]","[[2, 2, 2, 2, 0], [2, 2, 2, 2, 2], [0, 0, 2, 0, 2], [0, 2, 2, 2, 2], [2, 2, 2, 2, 0]]","[7, 12, 4, 4, 3]",14,3,2,0.047,0.047,0.0,[],0,random,5,5,2596,0,140,140,attentional-mouselab,7,106784,12
mouselab,False,[],"[[4, 5, 3, 5, 7], [5, 6, 6, 7, 4], [8, 4, 5, 7, 4], [5, 7, 3, 6, 6], [6, 7, 9, 4, 7]]","[[0, 2, 0, 2, 0], [2, 2, 2, 2, 2], [0, 2, 2, 0, 2], [2, 2, 2, 2, 2], [2, 2, 0, 2, 2]]","[3, 11, 11, 3, 2]",20,4,0,0.061,0.061,0.0,[],0,extreme,5,5,1787,0,182,182,attentional-mouselab,8,109922,12
mouselab,False,[1],"[[6, 6, 5, 4, 6], [3, 7, 4, 6, 6], [3, 5, 3, 8, 5], [5, 6, 5, 6, 7], [6, 8, 3, 6, 6]]","[[2, 1, 2, 2, 2], [0, 0, 2, 0, 2], [2, 0, 2, 0, 2], [2, 2, 2, 2, 2], [2, 0, 2, 2, 2]]","[5, 3, 8, 13, 1]",18,5,1,0.059,0.058666666666666666,0.0003333333333333333,[],0,extreme,5,5,2789,1,177,176,attentional-mouselab,9,114119,12
mouselab,False,[],"[[3, 4, 4, 4, 4], [4, 6, 7, 5, 7], [7, 6, 9, 4, 6], [2, 5, 7, 2, 2], [9, 7, 5, 7, 5]]","[[2, 2, 2, 2, 2], [2, 0, 0, 0, 2], [2, 2, 0, 2, 2], [2, 2, 2, 2, 2], [0, 2, 2, 0, 2]]","[2, 10, 11, 6, 1]",18,6,2,0.075,0.075,0.0,[],0,greedy,5,5,2157,0,224,224,attentional-mouselab,10,117402,12
mouselab,False,[],"[[2, 6, 4, 6, 3], [5, 6, 7, 8, 5], [7, 4, 6, 5, 4], [4, 5, 6, 5, 4], [4, 4, 6, 6, 8]]","[[0, 2, 2, 2, 2], [2, 2, 2, 0, 0], [2, 0, 2, 2, 2], [2, 2, 2, 2, 2], [0, 2, 2, 2, 0]]","[3, 18, 3, 4, 2]",24,7,3,0.07,0.07,0.0,[],0,extreme,5,5,2001,0,209,209,attentional-mouselab,11,120598,12
mouselab,False,[],"[[6, 7, 3, 6, 6], [5, 6, 4, 6, 5], [5, 5, 5, 4, 6], [6, 3, 7, 5, 0], [4, 5, 4, 7, 2]]","[[0, 0, 2, 0, 0], [2, 2, 2, 2, 2], [2, 0, 0, 2, 2], [2, 2, 2, 2, 2], [2, 2, 2, 2, 2]]","[8, 3, 14, 4, 1]",20,8,1,0.054,0.054,0.0,[],0,greedy,5,5,1989,0,161,161,attentional-mouselab,12,123636,12
mouselab,False,[],"[[6, 4, 5, 0, 6], [6, 5, 3, 4, 5], [5, 5, 5, 5, 5], [4, 7, 3, 6, 2], [2, 8, 5, 6, 8]]","[[2, 2, 2, 2, 0], [2, 2, 2, 2, 2], [0, 0, 0, 0, 0], [2, 2, 2, 2, 2], [2, 2, 2, 2, 2]]","[2, 6, 9, 9, 4]",12,9,4,0.046,0.046,0.0,[],0,random,5,5,2698,0,137,137,attentional-mouselab,13,127504,12
mouselab,False,"[14, 14]","[[3, 5, 4, 4, 5], [7, 7, 5, 7, 8], [4, 5, 5, 6, 6], [7, 5, 6, 4, 4], [2, 4, 3, 6, 2]]","[[2, 2, 0, 2, 2], [2, 2, 0, 0, 2], [0, 0, 2, 2, 0], [2, 2, 2, 0, 2], [2, 2, 2, 2, 2]]","[1, 2, 7, 15, 5]",20,10,4,0.044,0.04333333333333333,0.0006666666666666666,[14],1,random,5,5,8459,2,133,131,attentional-mouselab,14,137181,12
mouselab,False,[],"[[7, 5, 5, 6, 6], [6, 3, 3, 2, 5], [4, 3, 5, 6, 3], [4, 7, 3, 4, 8], [7, 3, 6, 7, 6]]","[[0, 2, 2, 2, 2], [0, 2, 2, 0, 2], [2, 2, 2, 0, 2], [2, 2, 0, 2, 0], [2, 2, 2, 2, 2]]","[6, 1, 12, 4, 7]",14,11,0,0.054,0.054,0.0,[],0,extreme,5,5,1820,0,161,161,attentional-mouselab,15,140184,12
mouselab,False,"[5, 5]","[[5, 5, 6, 6, 8], [5, 4, 3, 6, 4], [6, 1, 4, 7, 3], [2, 7, 6, 5, 6], [5, 7, 7, 3, 2]]","[[2, 0, 0, 0, 0], [0, 2, 2, 2, 2], [2, 0, 2, 2, 0], [2, 2, 2, 2, 2], [2, 2, 2, 2, 2]]","[4, 6, 5, 12, 3]",12,12,3,0.055,0.05433333333333333,0.0006666666666666666,[5],1,greedy,5,5,4294,2,164,162,attentional-mouselab,16,145483,12
mouselab,False,[],"[[4, 6, 3, 7, 4], [4, 4, 4, 5, 3], [2, 2, 7, 5, 3], [3, 4, 2, 6, 7], [6, 3, 4, 3, 4]]","[[2, 0, 2, 2, 2], [2, 0, 2, 0, 0], [2, 2, 2, 2, 0], [2, 2, 2, 2, 2], [2, 2, 2, 2, 0]]","[1, 2, 3, 20, 4]",28,13,2,0.029,0.029,0.0,[],0,random,5,5,2236,0,88,88,attentional-mouselab,17,148992,12
mouselab,False,"[11, 11]","[[7, 5, 7, 6, 4], [7, 6, 7, 4, 4], [5, 7, 9, 4, 8], [2, 6, 5, 5, 7], [6, 5, 5, 7, 6]]","[[0, 2, 2, 0, 2], [0, 2, 2, 2, 2], [2, 0, 0, 2, 0], [0, 2, 2, 2, 2], [2, 2, 2, 2, 2]]","[8, 2, 15, 1, 4]",22,14,2,0.077,0.07633333333333334,0.0006666666666666666,[11],1,extreme,5,5,4150,2,230,228,attentional-mouselab,18,154168,12
mouselab,False,"[17, 17]","[[4, 6, 3, 3, 4], [6, 5, 4, 7, 5], [2, 5, 4, 5, 5], [3, 5, 6, 6, 5], [9, 7, 3, 6, 6]]","[[2, 2, 2, 2, 2], [0, 0, 2, 2, 2], [2, 0, 2, 0, 2], [2, 2, 0, 2, 2], [2, 2, 2, 0, 0]]","[3, 7, 1, 14, 5]",18,15,1,0.054,0.05333333333333333,0.0006666666666666666,[17],1,random,5,5,3194,2,163,161,attentional-mouselab,19,158294,12
mouselab,False,[],"[[6, 7, 7, 5, 3], [6, 2, 4, 4, 4], [6, 4, 3, 5, 4], [6, 7, 8, 4, 7], [3, 3, 2, 4, 7]]","[[2, 2, 2, 0, 2], [2, 2, 2, 2, 2], [2, 0, 2, 2, 2], [2, 0, 0, 2, 0], [0, 2, 2, 2, 2]]","[8, 3, 6, 3, 10]",12,16,2,0.043,0.043,0.0,[],0,greedy,5,5,1393,0,130,130,attentional-mouselab,20,160658,12
mouselab,False,[],"[[5, 7, 7, 7, 4], [3, 3, 5, 3, 4], [6, 5, 2, 3, 5], [9, 4, 5, 8, 6], [7, 3, 6, 5, 2]]","[[2, 0, 0, 2, 2], [2, 2, 2, 2, 2], [2, 2, 2, 2, 2], [0, 2, 0, 2, 0], [0, 2, 2, 2, 2]]","[5, 4, 2, 11, 8]",14,17,0,0.068,0.068,0.0,[],0,greedy,5,5,2294,0,204,204,attentional-mouselab,21,164269,12
mouselab,True,"[20, 20, 21, 21, 22, 22, 23, 23, 24, 24]","[[10, 3, 4, 4, 4], [5, 7, 4, 4, 6], [6, 6, 6, 5, 7], [7, 7, 4, 7, 4], [4, 5, 3, 6, 7]]","[[2, 0, 2, 0, 2], [2, 2, 2, 0, 2], [0, 2, 2, 2, 2], [0, 2, 2, 2, 0], [0, 0, 0, 0, 0]]","[10, 1, 7, 1, 11]",20,1,4,0.059,0.05566666666666666,0.0033333333333333335,"[20, 21, 22, 23, 24]",5,random,5,5,13948,10,176,166,attentional-mouselab,4,149880,13
mouselab,True,"[24, 24, 23, 23, 22, 22, 21, 21, 20, 20]","[[5, 5, 3, 7, 7], [6, 6, 4, 5, 7], [5, 0, 5, 4, 6], [5, 4, 4, 5, 6], [5, 6, 6, 5, 4]]","[[2, 0, 2, 0, 0], [2, 2, 0, 2, 2], [2, 2, 0, 2, 2], [2, 2, 2, 2, 0], [0, 0, 0, 0, 0]]","[3, 2, 8, 5, 12]",16,2,2,0.05,0.04666666666666667,0.0033333333333333335,"[24, 23, 22, 21, 20]",5,random,5,5,14405,10,149,139,attentional-mouselab,5,167335,13
mouselab,False,[],"[[4, 6, 6, 5, 6], [9, 4, 10, 5, 4], [7, 6, 3, 2, 7], [5, 5, 7, 5, 4], [6, 4, 6, 5, 8]]","[[0, 2, 2, 2, 0], [0, 2, 0, 2, 2], [2, 2, 2, 0, 2], [2, 2, 2, 2, 2], [2, 2, 2, 2, 0]]","[8, 10, 4, 1, 7]",14,3,2,0.07,0.07,0.0,[],0,extreme,5,5,4925,0,209,209,attentional-mouselab,7,180627,13
mouselab,False,"[8, 8]","[[4, 7, 4, 5, 7], [5, 7, 5, 7, 6], [5, 2, 6, 6, 6], [7, 5, 4, 4, 4], [4, 8, 7, 5, 4]]","[[0, 0, 2, 2, 2], [2, 2, 0, 0, 2], [2, 0, 2, 2, 2], [2, 2, 2, 2, 2], [0, 0, 2, 2, 2]]","[7, 14, 2, 3, 4]",18,4,3,0.059,0.05833333333333333,0.0006666666666666666,[8],1,extreme,5,5,6983,2,177,175,attentional-mouselab,8,191240,13
mouselab,False,"[19, 19]","[[6, 6, 6, 5, 7], [4, 4, 4, 8, 5], [5, 3, 4, 1, 5], [3, 5, 2, 4, 7], [5, 3, 5, 6, 6]]","[[2, 0, 0, 2, 0], [2, 2, 0, 0, 2], [2, 2, 2, 2, 2], [2, 2, 2, 2, 0], [2, 2, 2, 2, 0]]","[7, 2, 1, 10, 10]",18,5,4,0.065,0.06433333333333334,0.0006666666666666666,[19],1,greedy,5,5,6837,2,194,192,attentional-mouselab,9,200439,13
mouselab,False,"[4, 4, 3, 3, 2, 2, 1, 1, 0, 0]","[[3, 6, 5, 4, 4], [5, 8, 5, 5, 4], [8, 3, 4, 5, 5], [6, 3, 7, 5, 4], [3, 1, 6, 6, 2]]","[[0, 0, 0, 0, 0], [2, 0, 2, 2, 2], [2, 2, 2, 2, 2], [0, 2, 0, 0, 0], [2, 2, 2, 2, 0]]","[12, 2, 9, 5, 2]",18,6,1,0.044,0.04066666666666666,0.0033333333333333335,"[4, 3, 2, 1, 0]",5,greedy,5,5,13408,10,132,122,attentional-mouselab,10,215432,13
mouselab,False,"[9, 9, 19, 19]","[[4, 5, 7, 3, 4], [3, 8, 4, 6, 6], [4, 7, 6, 7, 4], [5, 5, 4, 2, 6], [3, 7, 7, 6, 3]]","[[0, 2, 2, 2, 2], [2, 2, 2, 0, 0], [0, 2, 2, 2, 2], [2, 2, 2, 0, 0], [0, 2, 2, 2, 0]]","[3, 11, 3, 11, 2]",20,7,4,0.054,0.05266666666666667,0.0013333333333333333,"[9, 19]",2,random,5,5,8987,4,162,158,attentional-mouselab,11,226108,13
mouselab,False,[],"[[5, 3, 6, 7, 6], [8, 3, 6, 5, 6], [7, 7, 4, 4, 4], [4, 6, 5, 7, 7], [6, 7, 6, 3, 4]]","[[2, 0, 2, 2, 0], [2, 2, 2, 2, 2], [2, 0, 2, 2, 2], [2, 2, 0, 0, 2], [2, 2, 0, 2, 2]]","[8, 5, 5, 5, 7]",6,8,4,0.054,0.054,0.0,[],0,random,5,5,3800,0,161,161,attentional-mouselab,12,230979,13
mouselab,False,"[14, 14]","[[5, 6, 4, 3, 4], [6, 4, 4, 3, 1], [3, 5, 7, 1, 7], [9, 7, 5, 7, 5], [5, 5, 6, 2, 3]]","[[2, 2, 2, 2, 2], [2, 2, 0, 2, 2], [2, 2, 2, 0, 0], [0, 0, 2, 0, 2], [0, 2, 2, 2, 2]]","[9, 3, 14, 2, 2]",22,9,4,0.051,0.05033333333333333,0.0006666666666666666,[14],1,greedy,5,5,8219,2,153,151,attentional-mouselab,13,241192,13
mouselab,False,[],"[[6, 2, 3, 8, 3], [8, 7, 5, 6, 7], [5, 6, 5, 2, 5], [4, 5, 4, 7, 4], [3, 4, 7, 4, 4]]","[[2, 2, 2, 2, 2], [0, 2, 2, 2, 2], [2, 0, 2, 2, 2], [2, 0, 0, 2, 0], [0, 2, 2, 2, 2]]","[1, 4, 9, 12, 4]",18,10,1,0.053,0.053,0.0,[],0,random,5,5,6064,0,160,160,attentional-mouselab,14,250128,13
mouselab,False,[],"[[6, 6, 8, 7, 5], [6, 5, 5, 3, 5], [5, 6, 8, 3, 6], [4, 4, 5, 6, 4], [7, 5, 7, 7, 6]]","[[2, 2, 0, 2, 2], [2, 0, 2, 0, 2], [2, 2, 2, 2, 2], [2, 0, 2, 2, 2], [0, 2, 2, 0, 2]]","[9, 12, 1, 5, 3]",18,11,1,0.052,0.052,0.0,[],0,greedy,5,5,11168,0,155,155,attentional-mouselab,15,263374,13
mouselab,False,"[15, 15, 7, 7]","[[3, 6, 7, 3, 6], [5, 4, 5, 3, 6], [6, 8, 7, 5, 5], [4, 3, 7, 6, 3], [6, 4, 10, 1, 5]]","[[2, 2, 2, 2, 2], [0, 0, 0, 2, 2], [0, 2, 2, 2, 2], [0, 2, 0, 2, 2], [0, 0, 2, 2, 2]]","[2, 12, 2, 12, 2]",24,12,2,0.064,0.06266666666666666,0.0013333333333333333,"[15, 7]",2,random,5,5,12784,4,192,188,attentional-mouselab,16,278350,13
mouselab,False,"[11, 11, 13, 13, 14, 14]","[[3, 2, 7, 3, 2], [4, 5, 5, 5, 4], [6, 4, 1, 4, 7], [4, 3, 7, 5, 5], [3, 6, 3, 6, 3]]","[[0, 0, 2, 2, 0], [2, 2, 2, 2, 2], [2, 0, 0, 0, 0], [2, 2, 2, 2, 2], [2, 0, 0, 2, 2]]","[5, 6, 11, 2, 6]",10,13,4,0.046,0.044,0.002,"[11, 13, 14]",3,extreme,5,5,9479,6,139,133,attentional-mouselab,17,289216,13
mouselab,False,"[5, 5, 6, 6, 7, 7, 8, 8]","[[5, 4, 3, 7, 5], [5, 6, 3, 7, 7], [8, 4, 3, 5, 4], [8, 7, 4, 6, 5], [3, 6, 7, 5, 0]]","[[2, 2, 2, 0, 2], [0, 0, 0, 0, 2], [0, 2, 2, 0, 2], [0, 2, 0, 2, 2], [2, 2, 2, 2, 0]]","[1, 12, 3, 8, 6]",16,14,3,0.061,0.058333333333333334,0.0026666666666666666,"[5, 6, 7, 8]",4,extreme,5,5,10830,8,184,176,attentional-mouselab,18,302303,13
mouselab,False,[],"[[7, 4, 8, 6, 7], [5, 3, 5, 7, 4], [7, 8, 5, 2, 2], [5, 6, 4, 4, 5], [3, 6, 7, 7, 3]]","[[2, 2, 0, 2, 2], [2, 2, 2, 2, 2], [2, 0, 2, 0, 0], [2, 2, 2, 2, 2], [0, 2, 2, 0, 2]]","[2, 10, 12, 2, 4]",20,15,1,0.057,0.057,0.0,[],0,extreme,5,5,6479,0,170,170,attentional-mouselab,19,310130,13
mouselab,False,"[22, 22]","[[5, 6, 4, 3, 7], [5, 6, 5, 8, 4], [7, 3, 4, 5, 4], [7, 5, 8, 4, 7], [2, 4, 8, 7, 3]]","[[2, 2, 2, 2, 2], [2, 2, 2, 0, 2], [2, 2, 2, 2, 0], [0, 2, 0, 0, 0], [2, 2, 0, 2, 2]]","[7, 2, 3, 9, 9]",14,16,2,0.065,0.06433333333333334,0.0006666666666666666,[22],1,greedy,5,5,8602,2,194,192,attentional-mouselab,20,320098,13
mouselab,False,"[11, 11, 16, 16]","[[5, 5, 6, 1, 7], [8, 6, 5, 7, 5], [4, 7, 4, 7, 6], [4, 7, 5, 3, 5], [6, 3, 3, 7, 4]]","[[2, 2, 2, 2, 2], [0, 2, 2, 2, 0], [2, 0, 0, 2, 2], [2, 0, 0, 0, 2], [2, 2, 2, 2, 0]]","[2, 4, 13, 10, 1]",22,17,1,0.066,0.06466666666666666,0.0013333333333333333,"[11, 16]",2,random,5,5,6528,4,198,194,attentional-mouselab,21,328391,13
mouselab,True,[],"[[7, 4, 6, 7, 4], [5, 1, 4, 6, 8], [4, 2, 7, 2, 6], [5, 3, 3, 6, 4], [5, 5, 5, 4, 6]]","[[2, 0, 2, 2, 2], [2, 2, 2, 2, 2], [2, 2, 2, 0, 2], [0, 0, 0, 2, 0], [2, 2, 2, 2, 2]]","[7, 5, 5, 1, 12]",14,1,0,0.053,0.053,0.0,[],0,random,5,5,9604,0,159,159,attentional-mouselab,4,183846,14
mouselab,True,[],"[[5, 4, 3, 2, 6], [6, 6, 4, 4, 4], [4, 7, 2, 5, 8], [4, 4, 6, 3, 3], [4, 5, 5, 3, 5]]","[[2, 2, 2, 2, 2], [2, 2, 2, 2, 0], [2, 0, 0, 2, 2], [2, 2, 2, 0, 0], [2, 2, 2, 2, 0]]","[3, 3, 9, 14, 1]",22,2,1,0.051,0.051,0.0,[],0,random,5,5,5547,0,154,154,attentional-mouselab,5,200128,14
mouselab,False,[],"[[4, 5, 3, 6, 7], [4, 5, 8, 5, 7], [5, 2, 6, 7, 4], [5, 5, 6, 3, 7], [2, 6, 6, 6, 7]]","[[2, 2, 0, 2, 0], [2, 2, 0, 2, 2], [2, 0, 2, 2, 2], [2, 2, 2, 2, 2], [0, 2, 0, 2, 2]]","[12, 2, 6, 8, 2]",16,3,4,0.064,0.064,0.0,[],0,extreme,5,5,7843,0,192,192,attentional-mouselab,7,216135,14
mouselab,False,[],"[[5, 6, 4, 3, 4], [6, 4, 4, 3, 1], [3, 5, 7, 1, 7], [9, 7, 5, 7, 5], [5, 5, 6, 2, 3]]","[[2, 2, 2, 2, 2], [2, 2, 0, 2, 2], [2, 2, 2, 0, 2], [0, 0, 2, 0, 2], [0, 2, 2, 2, 2]]","[2, 9, 1, 12, 6]",18,4,0,0.068,0.068,0.0,[],0,greedy,5,5,5627,0,205,205,attentional-mouselab,8,225607,14
mouselab,False,[],"[[3, 6, 4, 3, 7], [3, 2, 5, 2, 5], [5, 3, 7, 6, 5], [5, 4, 5, 5, 3], [5, 3, 6, 3, 10]]","[[2, 2, 2, 2, 0], [2, 2, 0, 2, 2], [2, 0, 2, 2, 2], [2, 0, 2, 2, 0], [2, 2, 0, 2, 2]]","[9, 1, 6, 7, 7]",10,5,4,0.063,0.063,0.0,[],0,random,5,5,9021,0,189,189,attentional-mouselab,9,241133,14
mouselab,False,[],"[[7, 1, 7, 5, 9], [6, 6, 8, 6, 5], [6, 2, 5, 6, 4], [5, 6, 8, 4, 6], [7, 6, 4, 7, 3]]","[[2, 0, 2, 0, 0], [2, 2, 2, 2, 0], [2, 2, 2, 2, 2], [2, 2, 2, 2, 2], [0, 2, 2, 2, 0]]","[10, 11, 3, 4, 2]",18,6,4,0.062,0.062,0.0,[],0,random,5,5,10412,0,187,187,attentional-mouselab,10,254230,14
mouselab,False,[],"[[10, 5, 5, 1, 6], [3, 8, 6, 5, 4], [5, 5, 6, 8, 5], [7, 4, 6, 7, 7], [6, 6, 7, 5, 5]]","[[0, 2, 2, 2, 2], [2, 0, 2, 2, 2], [2, 2, 2, 2, 2], [0, 0, 2, 0, 2], [0, 2, 2, 2, 2]]","[2, 18, 4, 2, 4]",24,7,1,0.069,0.069,0.0,[],0,random,5,5,10061,0,206,206,attentional-mouselab,11,267158,14
mouselab,False,"[18, 18]","[[5, 6, 6, 5, 6], [2, 3, 3, 7, 5], [5, 7, 5, 6, 6], [6, 3, 3, 4, 4], [3, 3, 2, 1, 5]]","[[2, 2, 2, 2, 2], [2, 2, 0, 0, 2], [2, 0, 2, 0, 0], [2, 2, 2, 0, 2], [2, 0, 2, 2, 2]]","[2, 7, 8, 10, 3]",14,8,1,0.043,0.04233333333333333,0.0006666666666666666,[18],1,greedy,5,5,37246,2,128,126,attentional-mouselab,12,306931,14
mouselab,False,"[11, 11]","[[5, 8, 3, 7, 6], [6, 4, 5, 6, 4], [3, 6, 6, 2, 3], [4, 5, 6, 8, 6], [7, 5, 6, 5, 5]]","[[2, 2, 2, 2, 2], [2, 2, 2, 2, 0], [0, 0, 2, 2, 0], [0, 2, 2, 2, 2], [2, 2, 0, 2, 0]]","[1, 8, 13, 3, 5]",18,9,1,0.053,0.05233333333333333,0.0006666666666666666,[11],1,random,5,5,20884,2,158,156,attentional-mouselab,13,329986,14
mouselab,False,[],"[[4, 6, 3, 7, 4], [4, 4, 4, 5, 3], [2, 2, 7, 5, 3], [3, 4, 2, 6, 7], [6, 3, 4, 3, 4]]","[[2, 0, 2, 0, 2], [2, 2, 2, 0, 0], [2, 2, 2, 2, 0], [2, 2, 2, 2, 2], [2, 0, 2, 2, 2]]","[3, 2, 12, 4, 9]",18,10,2,0.048,0.048,0.0,[],0,greedy,5,5,10329,0,145,145,attentional-mouselab,14,342376,14
mouselab,False,"[9, 9]","[[6, 5, 9, 6, 7], [5, 8, 1, 7, 4], [5, 6, 4, 8, 6], [6, 5, 5, 5, 2], [6, 5, 5, 6, 9]]","[[2, 2, 0, 2, 2], [2, 2, 0, 2, 0], [2, 2, 2, 2, 2], [2, 0, 0, 0, 2], [2, 2, 2, 2, 0]]","[7, 8, 3, 6, 6]",6,11,4,0.055,0.05433333333333333,0.0006666666666666666,[9],1,greedy,5,5,23662,2,165,163,attentional-mouselab,15,368921,14
mouselab,False,[],"[[3, 3, 7, 4, 5], [4, 6, 5, 5, 5], [6, 7, 2, 5, 6], [7, 7, 6, 5, 7], [6, 2, 5, 4, 6]]","[[0, 0, 0, 2, 2], [2, 2, 2, 0, 2], [2, 2, 0, 2, 2], [2, 2, 2, 2, 2], [2, 0, 2, 2, 2]]","[4, 12, 5, 6, 3]",12,12,3,0.048,0.048,0.0,[],0,extreme,5,5,11751,0,143,143,attentional-mouselab,16,382771,14
mouselab,False,[],"[[7, 5, 5, 6, 6], [5, 4, 2, 6, 0], [6, 5, 5, 7, 4], [8, 2, 6, 4, 5], [5, 6, 3, 4, 6]]","[[0, 2, 2, 0, 0], [0, 2, 2, 2, 2], [2, 2, 2, 2, 2], [0, 0, 2, 2, 2], [2, 2, 2, 2, 2]]","[7, 6, 8, 8, 1]",10,13,0,0.065,0.065,0.0,[],0,greedy,5,5,8800,0,196,196,attentional-mouselab,17,393530,14
mouselab,False,[],"[[7, 6, 7, 4, 5], [5, 5, 5, 5, 5], [6, 3, 5, 5, 5], [4, 4, 6, 7, 4], [6, 4, 6, 6, 9]]","[[0, 0, 0, 2, 2], [2, 2, 2, 2, 2], [2, 2, 2, 2, 2], [2, 2, 0, 2, 2], [2, 0, 2, 2, 0]]","[10, 5, 2, 9, 4]",14,14,2,0.061,0.061,0.0,[],0,extreme,5,5,5081,0,183,183,attentional-mouselab,18,400450,14
mouselab,False,[],"[[8, 6, 5, 5, 5], [3, 7, 4, 5, 4], [5, 7, 3, 5, 4], [7, 3, 8, 5, 6], [3, 5, 6, 5, 5]]","[[0, 0, 2, 2, 0], [0, 2, 2, 2, 2], [2, 0, 2, 2, 2], [2, 2, 0, 2, 2], [2, 2, 2, 2, 2]]","[5, 1, 3, 13, 8]",18,15,2,0.063,0.063,0.0,[],0,extreme,5,5,6077,0,190,190,attentional-mouselab,19,408358,14
mouselab,False,"[5, 5, 6, 6]","[[2, 1, 4, 5, 5], [5, 5, 4, 8, 3], [3, 6, 8, 6, 4], [4, 6, 5, 2, 5], [3, 2, 8, 5, 6]]","[[2, 2, 0, 0, 2], [0, 0, 2, 2, 0], [2, 2, 0, 2, 2], [2, 2, 0, 2, 2], [2, 2, 0, 2, 2]]","[7, 14, 6, 1, 2]",18,16,2,0.051,0.049666666666666665,0.0013333333333333333,"[5, 6]",2,random,5,5,49405,4,153,149,attentional-mouselab,20,459840,14
mouselab,False,[],"[[4, 3, 5, 6, 3], [7, 4, 3, 5, 7], [3, 3, 4, 2, 5], [4, 4, 5, 8, 4], [8, 4, 8, 6, 6]]","[[2, 2, 2, 2, 2], [2, 2, 2, 2, 2], [0, 0, 2, 0, 2], [2, 2, 2, 0, 0], [0, 2, 2, 2, 2]]","[7, 4, 10, 3, 6]",10,17,0,0.049,0.049,0.0,[],0,extreme,5,5,15149,0,146,146,attentional-mouselab,21,476815,14
mouselab,True,"[12, 12, 11, 11, 6, 6]","[[4, 5, 2, 4, 7], [6, 6, 7, 7, 4], [6, 5, 6, 4, 8], [3, 7, 8, 5, 6], [5, 3, 6, 2, 4]]","[[2, 2, 2, 2, 2], [2, 0, 2, 2, 2], [0, 0, 0, 0, 2], [2, 0, 2, 0, 0], [2, 2, 2, 0, 2]]","[2, 5, 8, 11, 4]",14,1,1,0.056,0.054,0.002,"[12, 11, 6]",3,random,5,5,21131,6,169,163,attentional-mouselab,4,149518,15
mouselab,True,"[9, 9, 6, 6, 7, 7, 1, 1, 17, 17]","[[8, 7, 5, 7, 6], [4, 6, 6, 5, 3], [6, 7, 5, 4, 6], [7, 7, 6, 6, 6], [5, 5, 5, 4, 7]]","[[2, 0, 2, 2, 2], [0, 0, 0, 2, 0], [2, 2, 2, 0, 2], [2, 2, 0, 2, 2], [2, 0, 0, 0, 0]]","[4, 5, 2, 4, 15]",18,2,1,0.058,0.05466666666666667,0.0033333333333333335,"[9, 6, 7, 1, 17]",5,random,5,5,18793,10,175,165,attentional-mouselab,5,174648,15
mouselab,False,"[21, 21, 24, 24, 20, 20]","[[5, 6, 7, 3, 5], [5, 6, 7, 7, 7], [6, 5, 5, 5, 6], [6, 4, 4, 9, 2], [9, 5, 5, 6, 3]]","[[2, 0, 2, 2, 2], [0, 2, 2, 2, 0], [2, 0, 0, 2, 2], [2, 0, 2, 2, 2], [0, 0, 2, 2, 0]]","[4, 7, 5, 3, 11]",12,3,0,0.067,0.065,0.002,"[21, 24, 20]",3,random,5,5,12624,6,202,196,attentional-mouselab,7,194204,15
mouselab,False,"[20, 20, 19, 19, 4, 4]","[[7, 5, 6, 7, 6], [4, 3, 3, 7, 8], [7, 9, 4, 0, 3], [8, 4, 4, 5, 6], [3, 5, 4, 9, 6]]","[[2, 0, 2, 2, 0], [2, 2, 2, 0, 2], [2, 2, 2, 2, 2], [0, 0, 2, 2, 0], [0, 0, 2, 2, 0]]","[5, 3, 5, 7, 10]",10,4,4,0.057,0.055,0.002,"[20, 19, 4]",3,random,5,5,17714,6,171,165,attentional-mouselab,8,215891,15
mouselab,False,"[12, 12, 22, 22]","[[0, 6, 3, 6, 4], [4, 6, 4, 5, 8], [4, 3, 6, 2, 6], [8, 5, 5, 3, 4], [5, 6, 7, 7, 3]]","[[0, 2, 2, 2, 2], [2, 2, 2, 2, 0], [2, 2, 0, 0, 2], [0, 0, 2, 2, 2], [2, 0, 0, 2, 2]]","[7, 3, 10, 2, 8]",14,5,2,0.053,0.051666666666666666,0.0013333333333333333,"[12, 22]",2,extreme,5,5,17087,4,159,155,attentional-mouselab,9,237634,15
mouselab,False,"[2, 2]","[[5, 5, 7, 3, 4], [1, 2, 5, 4, 4], [7, 4, 5, 7, 4], [7, 5, 5, 5, 4], [7, 5, 4, 6, 1]]","[[2, 2, 0, 2, 2], [0, 0, 2, 0, 0], [2, 2, 2, 2, 2], [2, 2, 2, 2, 2], [2, 2, 0, 2, 0]]","[15, 2, 2, 1, 10]",26,6,2,0.057,0.05633333333333333,0.0006666666666666666,[2],1,extreme,5,5,9966,2,170,168,attentional-mouselab,10,250144,15
mouselab,False,"[4, 4]","[[6, 6, 2, 5, 7], [6, 3, 8, 8, 4], [7, 9, 3, 7, 6], [8, 4, 7, 6, 6], [3, 5, 5, 7, 8]]","[[2, 2, 2, 0, 0], [2, 2, 2, 0, 2], [2, 2, 2, 2, 0], [2, 0, 2, 2, 2], [0, 2, 2, 0, 2]]","[14, 6, 8, 1, 1]",20,7,4,0.061,0.06033333333333333,0.0006666666666666666,[4],1,random,5,5,8191,2,184,182,attentional-mouselab,11,260606,15
mouselab,False,"[19, 19, 16, 16, 17, 17, 18, 18, 15, 15]","[[5, 1, 2, 6, 5], [5, 5, 8, 5, 4], [5, 7, 6, 6, 6], [4, 4, 4, 5, 5], [7, 7, 6, 5, 3]]","[[2, 0, 2, 2, 0], [2, 2, 2, 2, 2], [2, 0, 0, 2, 0], [0, 0, 0, 0, 0], [2, 2, 2, 2, 0]]","[3, 3, 3, 15, 6]",18,8,4,0.046,0.042666666666666665,0.0033333333333333335,"[19, 16, 17, 18, 15]",5,greedy,5,5,21039,10,138,128,attentional-mouselab,12,283431,15
mouselab,False,"[3, 3, 4, 4]","[[5, 3, 4, 4, 7], [6, 7, 6, 4, 6], [6, 7, 6, 8, 8], [6, 4, 4, 5, 7], [5, 3, 7, 5, 5]]","[[2, 0, 2, 0, 0], [2, 2, 2, 2, 2], [2, 0, 2, 0, 0], [2, 0, 2, 2, 2], [0, 2, 2, 2, 2]]","[11, 9, 3, 2, 5]",16,9,4,0.065,0.06366666666666666,0.0013333333333333333,"[3, 4]",2,extreme,5,5,8663,4,194,190,attentional-mouselab,13,294953,15
mouselab,False,"[5, 5]","[[4, 4, 3, 5, 6], [5, 5, 5, 3, 6], [5, 4, 4, 5, 6], [2, 4, 5, 3, 8], [6, 3, 6, 2, 7]]","[[2, 2, 0, 2, 2], [0, 2, 2, 2, 2], [0, 0, 0, 2, 2], [0, 2, 2, 2, 0], [2, 2, 2, 2, 2]]","[4, 14, 4, 2, 6]",16,10,0,0.049,0.04833333333333333,0.0006666666666666666,[5],1,greedy,5,5,7110,2,146,144,attentional-mouselab,14,304034,15
mouselab,False,"[0, 0, 6, 6]","[[6, 8, 4, 8, 6], [9, 3, 6, 2, 6], [5, 6, 4, 3, 6], [5, 7, 1, 4, 4], [5, 6, 6, 4, 3]]","[[0, 0, 2, 2, 2], [0, 0, 2, 2, 2], [2, 2, 2, 0, 2], [0, 0, 0, 2, 2], [2, 2, 2, 2, 2]]","[13, 10, 3, 3, 1]",22,11,0,0.068,0.06666666666666667,0.0013333333333333333,"[0, 6]",2,extreme,5,5,12526,4,203,199,attentional-mouselab,15,318738,15
mouselab,False,"[18, 18]","[[5, 5, 3, 7, 7], [6, 6, 4, 5, 7], [5, 0, 5, 4, 6], [5, 4, 4, 5, 6], [5, 6, 6, 5, 4]]","[[2, 0, 2, 0, 0], [2, 2, 0, 2, 2], [2, 2, 0, 2, 2], [2, 2, 2, 0, 0], [2, 2, 2, 2, 2]]","[5, 1, 7, 13, 4]",16,12,4,0.059,0.05833333333333333,0.0006666666666666666,[18],1,random,5,5,9677,2,178,176,attentional-mouselab,16,330308,15
mouselab,False,"[18, 18]","[[1, 5, 4, 5, 4], [5, 8, 4, 2, 2], [4, 4, 7, 5, 7], [4, 5, 5, 7, 4], [6, 6, 6, 9, 7]]","[[0, 2, 2, 0, 0], [2, 0, 2, 0, 2], [2, 2, 2, 2, 2], [2, 2, 2, 0, 2], [2, 2, 2, 0, 2]]","[4, 2, 1, 9, 14]",22,13,3,0.073,0.07233333333333333,0.0006666666666666666,[18],1,extreme,5,5,10353,2,218,216,attentional-mouselab,17,343746,15
mouselab,False,"[14, 14, 11, 11]","[[3, 5, 6, 7, 9], [6, 3, 4, 2, 5], [7, 3, 6, 4, 5], [6, 6, 3, 6, 4], [5, 7, 8, 5, 3]]","[[2, 0, 2, 0, 0], [2, 2, 2, 2, 2], [2, 0, 2, 2, 0], [2, 0, 2, 2, 2], [2, 0, 0, 2, 2]]","[6, 6, 8, 4, 6]",4,14,4,0.053,0.051666666666666666,0.0013333333333333333,"[14, 11]",2,greedy,5,5,11257,4,158,154,attentional-mouselab,18,357181,15
mouselab,False,"[18, 18]","[[6, 5, 8, 5, 5], [4, 5, 4, 7, 1], [3, 7, 1, 5, 5], [6, 4, 5, 5, 5], [3, 6, 5, 4, 5]]","[[0, 2, 0, 2, 2], [2, 2, 2, 0, 0], [2, 0, 2, 2, 2], [2, 2, 2, 0, 2], [2, 2, 2, 0, 2]]","[2, 14, 2, 6, 6]",16,15,3,0.057,0.05633333333333333,0.0006666666666666666,[18],1,greedy,5,5,6450,2,172,170,attentional-mouselab,19,366057,15
mouselab,False,"[13, 13, 18, 18, 19, 19]","[[5, 5, 6, 6, 8], [5, 4, 3, 6, 4], [6, 1, 4, 7, 3], [2, 7, 6, 5, 6], [5, 7, 7, 3, 2]]","[[2, 2, 2, 2, 0], [2, 0, 2, 2, 0], [2, 0, 0, 0, 0], [2, 2, 2, 0, 0], [2, 2, 2, 2, 2]]","[4, 2, 15, 6, 3]",18,16,3,0.06,0.057999999999999996,0.002,"[13, 18, 19]",3,random,5,5,11362,6,180,174,attentional-mouselab,20,379826,15
mouselab,False,[],"[[7, 4, 5, 9, 2], [6, 5, 6, 6, 3], [9, 8, 3, 5, 5], [3, 7, 5, 4, 2], [6, 6, 3, 6, 3]]","[[2, 2, 2, 0, 2], [2, 2, 0, 2, 2], [0, 0, 2, 2, 2], [2, 2, 0, 2, 2], [2, 2, 0, 2, 2]]","[13, 4, 3, 1, 9]",20,17,3,0.071,0.071,0.0,[],0,greedy,5,5,5482,0,214,214,attentional-mouselab,21,387754,15
mouselab,True,[],"[[4, 2, 6, 3, 5], [2, 6, 2, 7, 4], [4, 1, 3, 6, 8], [4, 5, 5, 6, 5], [1, 7, 6, 6, 8]]","[[2, 2, 2, 2, 0], [2, 2, 0, 2, 0], [2, 2, 0, 2, 2], [2, 2, 2, 0, 2], [2, 2, 2, 2, 0]]","[8, 2, 3, 12, 5]",16,1,4,0.057,0.057,0.0,[],0,random,5,5,6646,0,172,172,attentional-mouselab,4,34551,16
mouselab,True,[],"[[3, 2, 7, 3, 2], [4, 5, 5, 5, 4], [6, 4, 1, 4, 7], [4, 3, 7, 5, 5], [3, 6, 3, 6, 3]]","[[2, 0, 2, 2, 2], [2, 2, 2, 2, 2], [2, 2, 0, 2, 2], [0, 2, 2, 2, 2], [2, 0, 0, 0, 2]]","[6, 8, 9, 5, 2]",10,2,4,0.046,0.046,0.0,[],0,random,5,5,5087,0,138,138,attentional-mouselab,5,41335,16
mouselab,False,[],"[[6, 7, 5, 4, 6], [6, 5, 5, 3, 3], [8, 6, 6, 5, 5], [5, 5, 1, 6, 8], [5, 5, 2, 5, 3]]","[[2, 2, 2, 2, 2], [2, 2, 2, 0, 2], [0, 0, 2, 2, 2], [2, 2, 0, 0, 2], [2, 2, 0, 2, 2]]","[7, 11, 5, 3, 4]",12,3,0,0.061,0.061,0.0,[],0,greedy,5,5,39758,0,183,183,attentional-mouselab,7,89439,16
mouselab,False,[],"[[1, 4, 6, 3, 6], [6, 8, 4, 4, 3], [7, 4, 7, 3, 4], [3, 4, 5, 4, 5], [5, 6, 5, 8, 1]]","[[0, 2, 0, 2, 2], [2, 0, 2, 2, 2], [2, 2, 2, 2, 2], [2, 2, 2, 2, 2], [2, 2, 0, 0, 0]]","[1, 12, 7, 4, 6]",14,4,1,0.06,0.06,0.0,[],0,extreme,5,5,2206,0,180,180,attentional-mouselab,8,94047,16
mouselab,False,[],"[[7, 3, 6, 3, 6], [3, 8, 5, 6, 5], [6, 6, 6, 5, 7], [4, 3, 4, 4, 2], [6, 6, 9, 3, 4]]","[[2, 2, 2, 2, 2], [2, 0, 0, 2, 2], [0, 0, 2, 2, 2], [2, 2, 2, 2, 0], [2, 2, 0, 2, 2]]","[1, 2, 10, 8, 9]",18,5,2,0.063,0.063,0.0,[],0,extreme,5,5,4807,0,189,189,attentional-mouselab,9,100279,16
mouselab,False,[],"[[5, 7, 8, 4, 7], [4, 4, 5, 5, 5], [6, 7, 5, 8, 7], [6, 1, 5, 5, 4], [6, 4, 7, 8, 5]]","[[2, 2, 0, 2, 0], [2, 2, 2, 2, 2], [0, 2, 2, 0, 2], [2, 0, 2, 2, 2], [0, 2, 2, 2, 2]]","[15, 8, 1, 3, 3]",22,6,2,0.067,0.067,0.0,[],0,extreme,5,5,6039,0,201,201,attentional-mouselab,10,108159,16
mouselab,False,[],"[[5, 4, 3, 7, 3], [7, 4, 7, 7, 4], [5, 3, 5, 5, 4], [8, 5, 4, 7, 3], [8, 7, 6, 4, 3]]","[[2, 2, 2, 2, 2], [0, 2, 0, 0, 2], [2, 2, 2, 2, 2], [2, 0, 2, 2, 2], [2, 0, 2, 0, 2]]","[1, 3, 9, 5, 12]",18,7,1,0.051,0.051,0.0,[],0,greedy,5,5,11199,0,152,152,attentional-mouselab,11,120694,16
mouselab,False,[],"[[6, 5, 7, 3, 6], [6, 4, 5, 3, 5], [0, 4, 5, 4, 3], [5, 5, 5, 3, 6], [9, 5, 8, 4, 6]]","[[2, 2, 0, 2, 2], [0, 2, 2, 0, 2], [2, 0, 2, 2, 2], [2, 2, 0, 0, 2], [2, 2, 2, 2, 2]]","[2, 6, 10, 10, 2]",16,8,1,0.045,0.045,0.0,[],0,random,5,5,4103,0,134,134,attentional-mouselab,12,126158,16
mouselab,False,[],"[[5, 5, 5, 2, 7], [6, 6, 5, 4, 3], [5, 4, 6, 3, 5], [1, 7, 6, 5, 4], [5, 6, 6, 4, 4]]","[[2, 2, 2, 0, 2], [0, 2, 0, 2, 2], [2, 2, 2, 2, 2], [0, 0, 0, 2, 2], [2, 2, 2, 2, 2]]","[7, 11, 1, 9, 2]",18,9,2,0.054,0.054,0.0,[],0,random,5,5,6447,0,162,162,attentional-mouselab,13,133886,16
mouselab,False,"[10, 11, 11, 10]","[[4, 4, 6, 10, 5], [5, 3, 6, 6, 5], [6, 4, 4, 6, 4], [5, 5, 6, 6, 5], [6, 5, 6, 5, 5]]","[[0, 0, 0, 0, 2], [2, 2, 2, 2, 2], [0, 0, 2, 2, 2], [2, 2, 2, 2, 2], [0, 2, 0, 2, 2]]","[1, 3, 16, 9, 1]",26,10,0,0.055,0.05366666666666667,0.0013333333333333333,"[11, 10]",2,greedy,5,5,12247,4,166,162,attentional-mouselab,14,147486,16
mouselab,False,[],"[[4, 6, 8, 3, 4], [5, 8, 3, 7, 4], [6, 6, 6, 5, 4], [8, 5, 2, 4, 3], [5, 7, 8, 5, 5]]","[[2, 2, 0, 0, 2], [2, 2, 2, 2, 0], [2, 2, 2, 0, 2], [2, 2, 2, 2, 2], [2, 0, 2, 2, 0]]","[7, 2, 10, 6, 5]",10,11,3,0.045,0.045,0.0,[],0,random,5,5,13343,0,134,134,attentional-mouselab,15,161982,16
mouselab,False,"[16, 16, 15, 15]","[[5, 8, 4, 4, 5], [5, 5, 5, 5, 5], [4, 2, 3, 4, 6], [7, 4, 7, 5, 8], [4, 3, 3, 5, 5]]","[[2, 2, 2, 2, 2], [2, 2, 2, 0, 0], [2, 2, 0, 0, 2], [0, 0, 2, 2, 2], [0, 2, 2, 2, 0]]","[7, 1, 6, 13, 3]",16,12,0,0.056,0.05466666666666667,0.0013333333333333333,"[16, 15]",2,random,5,5,6791,4,167,163,attentional-mouselab,16,170598,16
mouselab,False,[],"[[6, 2, 6, 5, 6], [5, 9, 8, 5, 7], [7, 0, 4, 8, 2], [5, 5, 6, 6, 4], [4, 3, 7, 7, 5]]","[[0, 2, 2, 2, 2], [2, 0, 0, 2, 0], [2, 2, 2, 2, 2], [2, 2, 2, 0, 0], [2, 2, 2, 2, 2]]","[6, 5, 5, 10, 4]",8,13,3,0.061,0.061,0.0,[],0,greedy,5,5,3550,0,183,183,attentional-mouselab,17,175446,16
mouselab,False,"[6, 6, 7, 7]","[[4, 5, 5, 4, 2], [5, 4, 6, 4, 5], [5, 4, 7, 4, 8], [3, 5, 5, 5, 6], [2, 4, 4, 8, 2]]","[[2, 2, 2, 0, 0], [2, 0, 0, 2, 2], [0, 2, 2, 2, 0], [2, 2, 2, 2, 2], [0, 0, 2, 2, 2]]","[6, 10, 2, 8, 4]",12,14,2,0.053,0.051666666666666666,0.0013333333333333333,"[6, 7]",2,extreme,5,5,15999,4,160,156,attentional-mouselab,18,192685,16
mouselab,False,[],"[[8, 6, 7, 4, 4], [4, 5, 1, 5, 6], [6, 3, 6, 6, 6], [7, 5, 2, 2, 6], [3, 4, 4, 5, 6]]","[[0, 2, 0, 2, 2], [2, 2, 2, 2, 2], [2, 2, 0, 0, 2], [2, 2, 2, 2, 2], [0, 2, 0, 2, 2]]","[13, 2, 2, 6, 7]",16,15,2,0.048,0.048,0.0,[],0,greedy,5,5,2839,0,145,145,attentional-mouselab,19,196949,16
mouselab,False,[],"[[3, 4, 4, 4, 4], [4, 6, 7, 5, 7], [7, 6, 9, 4, 6], [2, 5, 7, 2, 2], [9, 7, 5, 7, 5]]","[[2, 2, 2, 2, 2], [2, 0, 0, 0, 2], [2, 2, 0, 2, 2], [0, 2, 2, 2, 2], [0, 2, 2, 2, 2]]","[1, 7, 9, 4, 9]",14,16,2,0.069,0.069,0.0,[],0,extreme,5,5,2887,0,207,207,attentional-mouselab,20,201437,16
mouselab,False,[],"[[6, 6, 6, 4, 4], [6, 5, 6, 4, 4], [6, 4, 3, 9, 7], [4, 4, 9, 9, 5], [6, 4, 6, 4, 7]]","[[2, 0, 2, 2, 0], [0, 2, 2, 2, 0], [2, 2, 2, 2, 2], [2, 2, 2, 2, 2], [2, 2, 2, 0, 0]]","[11, 2, 4, 9, 4]",16,17,4,0.051,0.051,0.0,[],0,random,5,5,3159,0,153,153,attentional-mouselab,21,205989,16
mouselab,True,[],"[[5, 4, 4, 6, 3], [4, 7, 7, 6, 7], [5, 8, 5, 7, 4], [5, 3, 6, 2, 8], [4, 4, 6, 8, 7]]","[[2, 2, 2, 2, 2], [2, 0, 0, 2, 2], [2, 2, 0, 0, 2], [0, 2, 0, 2, 2], [2, 2, 2, 2, 2]]","[8, 9, 2, 5, 6]",10,1,4,0.059,0.059,0.0,[],0,random,5,5,6019,0,177,177,attentional-mouselab,4,151363,17
mouselab,True,[],"[[6, 4, 4, 4, 2], [2, 8, 4, 5, 6], [5, 4, 6, 3, 5], [7, 6, 5, 6, 5], [5, 5, 4, 4, 6]]","[[2, 0, 0, 2, 2], [2, 2, 0, 2, 2], [2, 0, 2, 2, 2], [2, 2, 2, 2, 0], [0, 2, 2, 2, 2]]","[6, 6, 2, 7, 9]",8,2,0,0.051,0.051,0.0,[],0,random,5,5,215482,0,152,152,attentional-mouselab,5,368739,17
mouselab,False,[],"[[6, 6, 3, 7, 7], [7, 5, 4, 4, 6], [8, 6, 4, 9, 6], [6, 5, 4, 5, 9], [6, 3, 6, 3, 3]]","[[0, 2, 2, 2, 2], [2, 2, 2, 2, 2], [2, 0, 2, 2, 2], [2, 0, 2, 2, 2], [0, 0, 0, 2, 2]]","[5, 9, 3, 8, 5]",10,3,3,0.051,0.051,0.0,[],0,random,5,5,2300,0,153,153,attentional-mouselab,7,375375,17
mouselab,False,[],"[[4, 4, 3, 5, 2], [6, 5, 2, 6, 3], [4, 5, 9, 8, 5], [5, 5, 8, 4, 4], [4, 8, 5, 3, 4]]","[[2, 2, 2, 2, 2], [2, 2, 2, 2, 2], [2, 2, 0, 0, 2], [2, 2, 2, 2, 0], [0, 0, 2, 0, 2]]","[1, 8, 9, 9, 3]",16,4,2,0.062,0.062,0.0,[],0,greedy,5,5,1968,0,187,187,attentional-mouselab,8,379330,17
mouselab,False,[],"[[6, 1, 5, 3, 1], [7, 4, 4, 4, 2], [9, 8, 4, 3, 6], [7, 5, 7, 5, 4], [6, 5, 9, 6, 6]]","[[2, 2, 2, 2, 2], [2, 2, 0, 2, 2], [2, 2, 2, 2, 2], [0, 2, 2, 0, 2], [0, 2, 0, 0, 2]]","[7, 18, 2, 2, 1]",26,5,2,0.046,0.046,0.0,[],0,random,5,5,2359,0,138,138,attentional-mouselab,9,383433,17
mouselab,False,[],"[[6, 3, 7, 6, 5], [7, 5, 5, 7, 6], [4, 5, 1, 6, 3], [4, 5, 4, 8, 6], [6, 7, 6, 6, 8]]","[[2, 2, 2, 2, 2], [2, 2, 0, 2, 2], [2, 2, 0, 2, 2], [2, 2, 0, 0, 0], [2, 2, 2, 2, 0]]","[4, 6, 1, 6, 13]",14,6,0,0.057,0.057,0.0,[],0,extreme,5,5,2217,0,172,172,attentional-mouselab,10,387169,17
mouselab,False,[],"[[4, 3, 4, 5, 8], [6, 3, 7, 5, 3], [6, 4, 4, 3, 5], [6, 7, 5, 5, 5], [9, 8, 5, 4, 5]]","[[2, 2, 2, 2, 2], [2, 0, 0, 2, 2], [2, 2, 0, 2, 2], [2, 0, 2, 2, 2], [0, 0, 2, 2, 2]]","[1, 2, 2, 22, 3]",32,7,4,0.05,0.05,0.0,[],0,greedy,5,5,3412,0,149,149,attentional-mouselab,11,392214,17
mouselab,False,[],"[[4, 6, 6, 8, 6], [3, 6, 7, 6, 3], [6, 5, 2, 5, 5], [8, 3, 5, 7, 5], [3, 4, 5, 3, 7]]","[[2, 2, 0, 0, 2], [2, 2, 2, 2, 2], [0, 2, 0, 2, 2], [0, 0, 2, 2, 2], [2, 2, 2, 2, 2]]","[3, 11, 2, 6, 8]",14,8,0,0.043,0.043,0.0,[],0,extreme,5,5,1706,0,129,129,attentional-mouselab,12,395560,17
mouselab,False,[],"[[5, 6, 5, 6, 5], [4, 6, 6, 6, 4], [3, 6, 6, 0, 7], [6, 3, 5, 5, 4], [5, 6, 6, 6, 5]]","[[2, 0, 2, 0, 2], [2, 2, 2, 2, 0], [0, 2, 2, 0, 2], [2, 2, 2, 2, 2], [2, 2, 2, 0, 2]]","[2, 9, 7, 9, 3]",14,9,2,0.056,0.056,0.0,[],0,random,5,5,1946,0,169,169,attentional-mouselab,13,399077,17
mouselab,False,[],"[[4, 6, 6, 6, 7], [3, 5, 3, 5, 4], [9, 4, 3, 6, 1], [5, 4, 3, 7, 7], [4, 2, 5, 5, 7]]","[[2, 0, 0, 2, 0], [0, 2, 2, 2, 2], [2, 2, 2, 2, 0], [2, 2, 2, 2, 2], [2, 2, 2, 2, 0]]","[2, 2, 6, 15, 5]",18,10,3,0.063,0.063,0.0,[],0,greedy,5,5,3410,0,188,188,attentional-mouselab,14,404201,17
mouselab,False,[],"[[4, 6, 6, 4, 3], [5, 5, 4, 5, 7], [6, 3, 6, 7, 6], [2, 5, 5, 5, 8], [6, 4, 4, 4, 6]]","[[2, 2, 0, 0, 2], [2, 2, 2, 2, 2], [0, 2, 0, 0, 2], [2, 2, 2, 2, 2], [0, 2, 2, 2, 2]]","[2, 3, 8, 8, 9]",14,11,4,0.064,0.064,0.0,[],0,greedy,5,5,2766,0,193,193,attentional-mouselab,15,408638,17
mouselab,False,[],"[[9, 5, 8, 4, 5], [8, 5, 7, 5, 2], [5, 4, 4, 3, 5], [5, 2, 7, 3, 6], [5, 6, 4, 5, 5]]","[[0, 2, 0, 2, 2], [2, 2, 2, 2, 0], [0, 2, 2, 0, 2], [2, 2, 2, 2, 2], [0, 2, 2, 2, 2]]","[2, 5, 8, 14, 1]",20,12,0,0.058,0.058,0.0,[],0,greedy,5,5,1878,0,173,173,attentional-mouselab,16,412495,17
mouselab,False,[],"[[3, 5, 5, 6, 6], [7, 4, 6, 5, 3], [4, 4, 5, 5, 4], [6, 1, 6, 3, 5], [7, 4, 7, 1, 7]]","[[0, 2, 2, 2, 2], [2, 2, 2, 2, 2], [2, 0, 0, 2, 2], [2, 0, 2, 2, 2], [0, 2, 2, 0, 2]]","[2, 10, 11, 5, 2]",18,13,1,0.036,0.036,0.0,[],0,extreme,5,5,3631,0,107,107,attentional-mouselab,17,418126,17
mouselab,False,[],"[[7, 6, 7, 6, 8], [3, 3, 3, 7, 2], [7, 4, 5, 6, 7], [6, 5, 7, 1, 3], [5, 5, 6, 2, 6]]","[[2, 2, 2, 0, 2], [0, 0, 2, 2, 2], [2, 2, 2, 2, 2], [2, 2, 2, 2, 0], [0, 2, 2, 2, 0]]","[3, 10, 12, 4, 1]",20,14,2,0.048,0.048,0.0,[],0,random,5,5,2068,0,145,145,attentional-mouselab,18,422129,17
mouselab,False,[],"[[6, 6, 4, 6, 6], [7, 5, 5, 6, 4], [6, 4, 5, 4, 4], [6, 3, 6, 4, 4], [7, 7, 6, 6, 3]]","[[2, 2, 2, 2, 2], [0, 2, 2, 0, 2], [2, 2, 2, 2, 2], [0, 0, 2, 2, 2], [0, 0, 2, 2, 2]]","[14, 8, 5, 2, 1]",20,15,3,0.055,0.055,0.0,[],0,extreme,5,5,3090,0,166,166,attentional-mouselab,19,426745,17
mouselab,False,[],"[[6, 6, 8, 5, 5], [2, 8, 1, 4, 4], [5, 4, 6, 5, 6], [5, 5, 4, 5, 5], [5, 7, 6, 3, 7]]","[[2, 2, 2, 2, 2], [2, 2, 2, 2, 2], [2, 0, 2, 2, 2], [0, 0, 0, 2, 0], [2, 2, 0, 2, 2]]","[2, 4, 11, 3, 10]",18,16,1,0.058,0.058,0.0,[],0,random,5,5,5689,0,173,173,attentional-mouselab,20,435960,17
mouselab,False,[],"[[4, 3, 7, 4, 4], [9, 4, 7, 5, 4], [6, 5, 8, 6, 3], [5, 4, 6, 6, 3], [5, 6, 3, 4, 8]]","[[2, 0, 2, 2, 2], [0, 2, 0, 2, 2], [2, 0, 0, 2, 2], [2, 2, 2, 2, 2], [2, 2, 2, 2, 0]]","[10, 6, 6, 2, 6]",8,17,0,0.057,0.057,0.0,[],0,extreme,5,5,3628,0,170,170,attentional-mouselab,21,443055,17
mouselab,True,[],"[[5, 4, 6, 6, 5], [3, 3, 7, 5, 6], [8, 4, 4, 6, 5], [5, 6, 5, 6, 7], [3, 5, 5, 6, 2]]","[[2, 2, 2, 0, 2], [0, 0, 2, 2, 2], [0, 2, 2, 2, 2], [0, 2, 2, 2, 2], [2, 2, 2, 2, 0]]","[6, 2, 10, 7, 5]",10,1,0,0.055,0.055,0.0,[],0,random,5,5,7166,0,166,166,attentional-mouselab,4,131044,18
mouselab,True,[],"[[5, 3, 2, 6, 5], [4, 3, 2, 4, 3], [3, 4, 4, 6, 5], [5, 5, 4, 4, 5], [7, 3, 5, 7, 6]]","[[2, 2, 0, 0, 2], [2, 2, 0, 2, 2], [2, 2, 2, 2, 2], [0, 0, 2, 0, 2], [2, 2, 2, 2, 2]]","[2, 6, 11, 6, 5]",10,2,0,0.044,0.044,0.0,[],0,random,5,5,3911,0,132,132,attentional-mouselab,5,138868,18
mouselab,False,[],"[[6, 4, 2, 7, 6], [5, 6, 8, 5, 6], [5, 4, 4, 5, 6], [6, 5, 3, 3, 5], [6, 4, 7, 4, 9]]","[[2, 2, 0, 2, 2], [0, 2, 0, 2, 2], [2, 2, 2, 2, 0], [2, 2, 2, 2, 2], [2, 2, 0, 2, 0]]","[2, 11, 1, 10, 6]",18,3,1,0.051,0.051,0.0,[],0,extreme,5,5,6831,0,152,152,attentional-mouselab,7,153388,18
