type,is_practice,click_values,payoff_matrix,cost_matrix,weights,weights_variance,trial_num,selected_option,gross_earnings,net_earnings,click_cost,uncovered_values,trial_nudge,nudge_index,accepted_default,accepted_supersize,chose_default,chose_supersize,num_baskets,num_features,cost,trial_type,trial_index,time_elapsed,internal_node_id,prolific_pid,study_id,session_id,nudge_type,participant_id
mouselab,True,"[0, 3, 1, 2, 0, 2, 3, 1]","[[5, 6], [6, 3]]","[[0, 0], [0, 0]]","[6, 4]",1.0,1,1,0.048,0.04,0.008,"[0, 2, 3, 1]",control,-1,False,False,False,False,2,2,2,implicit-mouselab,4,95117,0.0-3.0-1.0,5f625b37b063532a77bea980,5faed821735c4c09a01dbe66,5faed911db8c0a09a2870c8e,default,1
mouselab,True,[],"[[3, 6, 5, 4, 4, 4, 6], [8, 4, 6, 5, 9, 3, 6], [7, 7, 6, 2, 7, 5, 6], [3, 9, 5, 5, 7, 5, 10], [6, 5, 9, 6, 5, 4, 5]]","[[3, 3, 3, 3, 3, 3, 3], [3, 3, 3, 3, 3, 3, 3], [3, 3, 3, 3, 3, 3, 3], [3, 3, 3, 3, 3, 3, 3], [3, 3, 3, 3, 3, 3, 3]]","[1, 3, 1, 1, 4]",1.6,2,3,0.05,0.05,0.0,[],control,-1,False,False,False,False,7,5,3,implicit-mouselab,5,103217,0.0-3.0-2.0,5f625b37b063532a77bea980,5faed821735c4c09a01dbe66,5faed911db8c0a09a2870c8e,default,1
mouselab,False,[],"[[4, 9], [5, 4], [4, 4], [5, 6], [8, 3]]","[[1, 1], [1, 1], [1, 1], [1, 1], [1, 1]]","[2, 1, 1, 2, 4]",1.2,5,0,0.059,0.059,0.0,[],default,0,True,False,True,False,2,5,1,implicit-mouselab,7,113299,0.0-3.0-4.0,5f625b37b063532a77bea980,5faed821735c4c09a01dbe66,5faed911db8c0a09a2870c8e,default,1
mouselab,False,[],"[[4, 6], [5, 8]]","[[4, 4], [4, 4]]","[4, 6]",1.0,6,1,0.072,0.072,0.0,[],control,-1,False,False,False,False,2,2,4,implicit-mouselab,8,118953,0.0-3.0-5.0,5f625b37b063532a77bea980,5faed821735c4c09a01dbe66,5faed911db8c0a09a2870c8e,default,1
mouselab,False,[],"[[7, 5], [5, 5]]","[[3, 3], [3, 3]]","[6, 4]",1.0,7,0,0.062,0.062,0.0,[],control,-1,False,False,False,False,2,2,3,implicit-mouselab,9,126191,0.0-3.0-6.0,5f625b37b063532a77bea980,5faed821735c4c09a01dbe66,5faed911db8c0a09a2870c8e,default,1
mouselab,False,[],"[[4, 3], [8, 5]]","[[2, 2], [2, 2]]","[9, 1]",16.0,8,0,0.044,0.044,0.0,[],default,0,True,False,True,False,2,2,2,implicit-mouselab,10,145409,0.0-3.0-7.0,5f625b37b063532a77bea980,5faed821735c4c09a01dbe66,5faed911db8c0a09a2870c8e,default,1
mouselab,False,[3],"[[6, 4, 4, 5, 6, 7, 7], [6, 3, 7, 6, 4, 6, 6]]","[[1, 1, 1, 0, 1, 1, 1], [1, 1, 1, 1, 1, 1, 1]]","[4, 6]",1.0,9,3,0.056,0.055,0.001,[3],default,6,False,False,False,False,7,2,1,implicit-mouselab,11,164555,0.0-3.0-8.0,5f625b37b063532a77bea980,5faed821735c4c09a01dbe66,5faed911db8c0a09a2870c8e,default,1
mouselab,False,[],"[[4, 2], [3, 9], [5, 4], [4, 9], [4, 6]]","[[3, 3], [3, 3], [3, 3], [3, 3], [3, 3]]","[1, 6, 1, 1, 1]",4.0,10,0,0.035,0.035,0.0,[],default,0,True,False,True,False,2,5,3,implicit-mouselab,12,168566,0.0-3.0-9.0,5f625b37b063532a77bea980,5faed821735c4c09a01dbe66,5faed911db8c0a09a2870c8e,default,1
mouselab,False,[],"[[4, 3], [8, 6]]","[[4, 4], [4, 4]]","[1, 9]",16.0,11,1,0.057,0.057,0.0,[],default,1,True,False,True,False,2,2,4,implicit-mouselab,13,172830,0.0-3.0-10.0,5f625b37b063532a77bea980,5faed821735c4c09a01dbe66,5faed911db8c0a09a2870c8e,default,1
mouselab,False,[],"[[5, 4], [4, 6]]","[[2, 2], [2, 2]]","[3, 7]",4.0,12,1,0.054,0.054,0.0,[],default,1,False,False,True,False,2,2,2,implicit-mouselab,14,180962,0.0-3.0-11.0,5f625b37b063532a77bea980,5faed821735c4c09a01dbe66,5faed911db8c0a09a2870c8e,default,1
mouselab,False,[16],"[[4, 7, 6, 2, 3, 3, 3], [5, 5, 5, 5, 8, 3, 0], [5, 4, 3, 4, 3, 5, 4], [6, 3, 9, 4, 6, 7, 7], [5, 3, 7, 6, 4, 7, 5]]","[[1, 1, 1, 1, 1, 1, 1], [1, 1, 1, 1, 1, 1, 1], [1, 1, 0, 1, 1, 1, 1], [1, 1, 1, 1, 1, 1, 1], [1, 1, 1, 1, 1, 1, 1]]","[2, 1, 2, 1, 4]",1.2,13,6,0.041,0.04,0.001,[16],control,-1,False,False,False,False,7,5,1,implicit-mouselab,15,190810,0.0-3.0-12.0,5f625b37b063532a77bea980,5faed821735c4c09a01dbe66,5faed911db8c0a09a2870c8e,default,1
mouselab,False,[],"[[5, 6, 6, 7, 5, 4, 6], [5, 2, 5, 6, 8, 5, 6]]","[[4, 4, 4, 4, 4, 4, 4], [4, 4, 4, 4, 4, 4, 4]]","[4, 6]",1.0,14,2,0.054,0.054,0.0,[],control,-1,False,False,False,False,7,2,4,implicit-mouselab,16,215856,0.0-3.0-13.0,5f625b37b063532a77bea980,5faed821735c4c09a01dbe66,5faed911db8c0a09a2870c8e,default,1
mouselab,False,[],"[[4, 6], [5, 6]]","[[4, 4], [4, 4]]","[5, 5]",0.0,15,0,0.045,0.045,0.0,[],default,0,True,False,True,False,2,2,4,implicit-mouselab,17,223843,0.0-3.0-14.0,5f625b37b063532a77bea980,5faed821735c4c09a01dbe66,5faed911db8c0a09a2870c8e,default,1
mouselab,False,[],"[[5, 4, 3, 3, 2, 5, 8], [4, 6, 7, 4, 5, 4, 7], [6, 2, 8, 6, 4, 8, 5], [4, 5, 4, 5, 5, 8, 2], [2, 7, 6, 5, 4, 4, 4]]","[[2, 2, 2, 2, 2, 2, 2], [2, 2, 2, 2, 2, 2, 2], [2, 2, 2, 2, 2, 2, 2], [2, 2, 2, 2, 2, 2, 2], [2, 2, 2, 2, 2, 2, 2]]","[3, 1, 2, 2, 2]",0.4,16,0,0.043,0.043,0.0,[],default,0,True,False,True,False,7,5,2,implicit-mouselab,18,227262,0.0-3.0-15.0,5f625b37b063532a77bea980,5faed821735c4c09a01dbe66,5faed911db8c0a09a2870c8e,default,1
mouselab,False,[],"[[3, 8], [5, 7], [5, 4], [7, 2], [3, 3]]","[[3, 3], [3, 3], [3, 3], [3, 3], [3, 3]]","[1, 4, 1, 2, 2]",1.2,17,1,0.05,0.05,0.0,[],default,0,False,False,False,False,2,5,3,implicit-mouselab,19,231674,0.0-3.0-16.0,5f625b37b063532a77bea980,5faed821735c4c09a01dbe66,5faed911db8c0a09a2870c8e,default,1
mouselab,False,[],"[[3, 5, 5, 4, 6, 6, 6], [5, 5, 4, 3, 1, 1, 6], [5, 5, 4, 2, 6, 6, 4], [4, 3, 4, 5, 4, 3, 1], [6, 8, 6, 4, 5, 5, 5]]","[[1, 1, 1, 1, 1, 1, 1], [1, 1, 1, 1, 1, 1, 1], [1, 1, 1, 1, 1, 1, 1], [1, 1, 1, 1, 1, 1, 1], [1, 1, 1, 1, 1, 1, 1]]","[2, 2, 2, 2, 2]",0.0,18,4,0.044,0.044,0.0,[],control,-1,False,False,False,False,7,5,1,implicit-mouselab,20,233941,0.0-3.0-17.0,5f625b37b063532a77bea980,5faed821735c4c09a01dbe66,5faed911db8c0a09a2870c8e,default,1
mouselab,False,[],"[[8, 7, 5, 5, 5, 5, 4], [3, 2, 4, 4, 5, 3, 2]]","[[2, 2, 2, 2, 2, 2, 2], [2, 2, 2, 2, 2, 2, 2]]","[9, 1]",16.0,19,3,0.049,0.049,0.0,[],control,-1,False,False,False,False,7,2,2,implicit-mouselab,21,235448,0.0-3.0-18.0,5f625b37b063532a77bea980,5faed821735c4c09a01dbe66,5faed911db8c0a09a2870c8e,default,1
mouselab,False,[],"[[4, 6], [4, 3], [3, 5], [5, 7], [8, 8]]","[[3, 3], [3, 3], [3, 3], [3, 3], [3, 3]]","[1, 5, 1, 2, 1]",2.4,20,1,0.048,0.048,0.0,[],control,-1,False,False,False,False,2,5,3,implicit-mouselab,22,237131,0.0-3.0-19.0,5f625b37b063532a77bea980,5faed821735c4c09a01dbe66,5faed911db8c0a09a2870c8e,default,1
mouselab,False,[],"[[7, 4, 6, 3, 6, 6, 5], [8, 6, 4, 5, 7, 5, 2]]","[[3, 3, 3, 3, 3, 3, 3], [3, 3, 3, 3, 3, 3, 3]]","[8, 2]",9.0,21,0,0.072,0.072,0.0,[],default,0,True,False,True,False,7,2,3,implicit-mouselab,23,245631,0.0-3.0-20.0,5f625b37b063532a77bea980,5faed821735c4c09a01dbe66,5faed911db8c0a09a2870c8e,default,1
mouselab,False,[],"[[7, 5, 6, 5, 6, 5, 8], [4, 9, 4, 7, 6, 5, 5], [5, 7, 5, 7, 5, 5, 7], [5, 4, 4, 6, 6, 4, 6], [4, 5, 5, 5, 5, 3, 5]]","[[1, 1, 1, 1, 1, 1, 1], [1, 1, 1, 1, 1, 1, 1], [1, 1, 1, 1, 1, 1, 1], [1, 1, 1, 1, 1, 1, 1], [1, 1, 1, 1, 1, 1, 1]]","[3, 2, 1, 3, 1]",0.8,22,4,0.058,0.058,0.0,[],control,-1,False,False,False,False,7,5,1,implicit-mouselab,24,247489,0.0-3.0-21.0,5f625b37b063532a77bea980,5faed821735c4c09a01dbe66,5faed911db8c0a09a2870c8e,default,1
mouselab,False,[],"[[4, 3, 8, 4, 4, 5, 5], [6, 5, 6, 5, 3, 5, 3], [8, 5, 5, 1, 4, 4, 6], [3, 1, 3, 3, 2, 3, 8], [5, 10, 4, 10, 3, 4, 2]]","[[4, 4, 4, 4, 4, 4, 4], [4, 4, 4, 4, 4, 4, 4], [4, 4, 4, 4, 4, 4, 4], [4, 4, 4, 4, 4, 4, 4], [4, 4, 4, 4, 4, 4, 4]]","[1, 1, 4, 2, 2]",1.2,23,6,0.052,0.052,0.0,[],control,-1,False,False,False,False,7,5,4,implicit-mouselab,25,249549,0.0-3.0-22.0,5f625b37b063532a77bea980,5faed821735c4c09a01dbe66,5faed911db8c0a09a2870c8e,default,1
mouselab,False,[],"[[6, 7, 3, 4, 3, 6, 6], [3, 4, 7, 2, 5, 3, 5], [6, 6, 10, 2, 8, 7, 5], [8, 7, 6, 6, 4, 5, 2], [8, 4, 4, 3, 6, 8, 4]]","[[2, 2, 2, 2, 2, 2, 2], [2, 2, 2, 2, 2, 2, 2], [2, 2, 2, 2, 2, 2, 2], [2, 2, 2, 2, 2, 2, 2], [2, 2, 2, 2, 2, 2, 2]]","[3, 3, 1, 1, 2]",0.8,24,1,0.054,0.054,0.0,[],control,-1,False,False,False,False,7,5,2,implicit-mouselab,26,251300,0.0-3.0-23.0,5f625b37b063532a77bea980,5faed821735c4c09a01dbe66,5faed911db8c0a09a2870c8e,default,1
mouselab,True,"[1, 1, 4, 4, 4, 13, 13]","[[7, 4, 5, 8, 4, 4, 5], [2, 3, 6, 6, 8, 9, 5]]","[[2, 0, 2, 2, 0, 2, 2], [2, 2, 2, 2, 2, 2, 0]]","[3, 7]",4.0,1,6,0.05,0.044000000000000004,0.006,"[1, 4, 13]",control,-1,False,False,False,False,7,2,2,implicit-mouselab,4,118501,0.0-3.0-1.0,5d11cf66e555d5001ac10ceb,5faed821735c4c09a01dbe66,5faed946eb2a430991990c33,default,2
mouselab,True,[],"[[1, 4], [6, 4], [3, 4], [3, 6], [4, 5]]","[[3, 3], [3, 3], [3, 3], [3, 3], [3, 3]]","[1, 3, 1, 2, 3]",0.8,2,1,0.047,0.047,0.0,[],control,-1,False,False,False,False,2,5,3,implicit-mouselab,5,122650,0.0-3.0-2.0,5d11cf66e555d5001ac10ceb,5faed821735c4c09a01dbe66,5faed946eb2a430991990c33,default,2
mouselab,False,[],"[[5, 4, 6, 1, 5, 6, 3], [3, 4, 6, 6, 4, 4, 7]]","[[1, 1, 1, 1, 1, 1, 1], [1, 1, 1, 1, 1, 1, 1]]","[4, 6]",1.0,5,1,0.04,0.04,0.0,[],default,1,True,False,True,False,7,2,1,implicit-mouselab,7,127441,0.0-3.0-4.0,5d11cf66e555d5001ac10ceb,5faed821735c4c09a01dbe66,5faed946eb2a430991990c33,default,2
mouselab,False,[],"[[6, 6], [7, 1], [5, 7], [5, 5], [6, 6]]","[[1, 1], [1, 1], [1, 1], [1, 1], [1, 1]]","[2, 1, 4, 1, 2]",1.2,6,1,0.058,0.058,0.0,[],default,1,True,False,True,False,2,5,1,implicit-mouselab,8,132192,0.0-3.0-5.0,5d11cf66e555d5001ac10ceb,5faed821735c4c09a01dbe66,5faed946eb2a430991990c33,default,2
mouselab,False,[],"[[3, 3], [6, 5], [4, 7], [5, 6], [5, 9]]","[[3, 3], [3, 3], [3, 3], [3, 3], [3, 3]]","[1, 1, 3, 4, 1]",1.6,7,1,0.062,0.062,0.0,[],default,1,True,False,True,False,2,5,3,implicit-mouselab,9,136407,0.0-3.0-6.0,5d11cf66e555d5001ac10ceb,5faed821735c4c09a01dbe66,5faed946eb2a430991990c33,default,2
mouselab,False,[],"[[3, 5], [7, 6]]","[[2, 2], [2, 2]]","[7, 3]",4.0,8,1,0.053,0.053,0.0,[],control,-1,False,False,False,False,2,2,2,implicit-mouselab,10,140042,0.0-3.0-7.0,5d11cf66e555d5001ac10ceb,5faed821735c4c09a01dbe66,5faed946eb2a430991990c33,default,2
mouselab,False,[],"[[7, 6, 6, 5, 6, 5, 8], [4, 6, 6, 4, 3, 4, 6]]","[[1, 1, 1, 1, 1, 1, 1], [1, 1, 1, 1, 1, 1, 1]]","[2, 8]",9.0,9,3,0.042,0.042,0.0,[],default,3,True,False,True,False,7,2,1,implicit-mouselab,11,142725,0.0-3.0-8.0,5d11cf66e555d5001ac10ceb,5faed821735c4c09a01dbe66,5faed946eb2a430991990c33,default,2
mouselab,False,[],"[[3, 5], [6, 6]]","[[2, 2], [2, 2]]","[8, 2]",9.0,10,0,0.036,0.036,0.0,[],control,-1,False,False,False,False,2,2,2,implicit-mouselab,12,145771,0.0-3.0-9.0,5d11cf66e555d5001ac10ceb,5faed821735c4c09a01dbe66,5faed946eb2a430991990c33,default,2
mouselab,False,"[6, 6, 6]","[[2, 5, 7, 9, 4, 0, 5], [3, 4, 2, 6, 5, 5, 9]]","[[3, 3, 3, 3, 3, 3, 0], [3, 3, 3, 3, 3, 3, 3]]","[2, 8]",9.0,11,6,0.082,0.079,0.003,[6],control,-1,False,False,False,False,7,2,3,implicit-mouselab,13,156344,0.0-3.0-10.0,5d11cf66e555d5001ac10ceb,5faed821735c4c09a01dbe66,5faed946eb2a430991990c33,default,2
mouselab,False,[],"[[3, 7], [4, 3]]","[[3, 3], [3, 3]]","[2, 8]",9.0,12,0,0.038,0.038,0.0,[],control,-1,False,False,False,False,2,2,3,implicit-mouselab,14,159310,0.0-3.0-11.0,5d11cf66e555d5001ac10ceb,5faed821735c4c09a01dbe66,5faed946eb2a430991990c33,default,2
mouselab,False,[],"[[4, 6], [4, 6], [5, 3], [5, 4], [6, 4]]","[[4, 4], [4, 4], [4, 4], [4, 4], [4, 4]]","[1, 2, 4, 1, 2]",1.2,13,0,0.049,0.049,0.0,[],default,0,True,False,True,False,2,5,4,implicit-mouselab,15,162321,0.0-3.0-12.0,5d11cf66e555d5001ac10ceb,5faed821735c4c09a01dbe66,5faed946eb2a430991990c33,default,2
mouselab,False,[],"[[6, 9, 4, 3, 5, 7, 5], [6, 5, 6, 5, 5, 4, 4], [7, 5, 5, 9, 5, 6, 5], [6, 6, 4, 4, 6, 1, 6], [4, 7, 8, 6, 5, 6, 4]]","[[4, 4, 4, 4, 4, 4, 4], [4, 4, 4, 4, 4, 4, 4], [4, 4, 4, 4, 4, 4, 4], [4, 4, 4, 4, 4, 4, 4], [4, 4, 4, 4, 4, 4, 4]]","[2, 1, 3, 1, 3]",0.8,14,5,0.055,0.055,0.0,[],default,5,True,False,True,False,7,5,4,implicit-mouselab,16,165830,0.0-3.0-13.0,5d11cf66e555d5001ac10ceb,5faed821735c4c09a01dbe66,5faed946eb2a430991990c33,default,2
mouselab,False,[],"[[3, 7], [6, 7]]","[[4, 4], [4, 4]]","[4, 6]",1.0,15,1,0.07,0.07,0.0,[],default,1,True,False,True,False,2,2,4,implicit-mouselab,17,169899,0.0-3.0-14.0,5d11cf66e555d5001ac10ceb,5faed821735c4c09a01dbe66,5faed946eb2a430991990c33,default,2
mouselab,False,[],"[[9, 8, 4, 4, 7, 5, 4], [7, 2, 6, 3, 3, 5, 6], [4, 6, 6, 4, 4, 3, 5], [5, 4, 5, 6, 8, 5, 5], [6, 4, 5, 5, 6, 2, 6]]","[[2, 2, 2, 2, 2, 2, 2], [2, 2, 2, 2, 2, 2, 2], [2, 2, 2, 2, 2, 2, 2], [2, 2, 2, 2, 2, 2, 2], [2, 2, 2, 2, 2, 2, 2]]","[3, 1, 2, 3, 1]",0.8,16,0,0.063,0.063,0.0,[],default,0,True,False,True,False,7,5,2,implicit-mouselab,18,173127,0.0-3.0-15.0,5d11cf66e555d5001ac10ceb,5faed821735c4c09a01dbe66,5faed946eb2a430991990c33,default,2
mouselab,False,[],"[[8, 4, 2, 8, 3, 4, 9], [4, 5, 4, 3, 6, 5, 6]]","[[1, 1, 1, 1, 1, 1, 1], [1, 1, 1, 1, 1, 1, 1]]","[9, 1]",16.0,17,3,0.075,0.075,0.0,[],control,-1,False,False,False,False,7,2,1,implicit-mouselab,19,176054,0.0-3.0-16.0,5d11cf66e555d5001ac10ceb,5faed821735c4c09a01dbe66,5faed946eb2a430991990c33,default,2
mouselab,False,[6],"[[7, 1], [5, 4], [6, 3], [7, 5], [6, 6]]","[[1, 1], [1, 1], [1, 1], [0, 1], [1, 1]]","[1, 3, 1, 4, 1]",1.6,18,0,0.062,0.061,0.001,[6],control,-1,False,False,False,False,2,5,1,implicit-mouselab,20,186889,0.0-3.0-17.0,5d11cf66e555d5001ac10ceb,5faed821735c4c09a01dbe66,5faed946eb2a430991990c33,default,2
mouselab,False,[],"[[4, 7, 5, 6, 1, 6, 6], [6, 3, 3, 5, 5, 5, 4]]","[[3, 3, 3, 3, 3, 3, 3], [3, 3, 3, 3, 3, 3, 3]]","[8, 2]",9.0,19,3,0.058,0.058,0.0,[],control,-1,False,False,False,False,7,2,3,implicit-mouselab,21,190000,0.0-3.0-18.0,5d11cf66e555d5001ac10ceb,5faed821735c4c09a01dbe66,5faed946eb2a430991990c33,default,2
mouselab,False,[],"[[7, 4], [4, 3]]","[[2, 2], [2, 2]]","[1, 9]",16.0,20,1,0.031,0.031,0.0,[],default,1,True,False,True,False,2,2,2,implicit-mouselab,22,192675,0.0-3.0-19.0,5d11cf66e555d5001ac10ceb,5faed821735c4c09a01dbe66,5faed946eb2a430991990c33,default,2
mouselab,False,[],"[[8, 3], [6, 6], [5, 2], [7, 5], [6, 6]]","[[2, 2], [2, 2], [2, 2], [2, 2], [2, 2]]","[1, 1, 3, 2, 3]",0.8,21,0,0.061,0.061,0.0,[],control,-1,False,False,False,False,2,5,2,implicit-mouselab,23,195035,0.0-3.0-20.0,5d11cf66e555d5001ac10ceb,5faed821735c4c09a01dbe66,5faed946eb2a430991990c33,default,2
mouselab,False,[],"[[4, 5, 3, 5, 5, 4, 5], [5, 7, 6, 6, 6, 3, 4], [6, 7, 4, 6, 6, 6, 3], [7, 5, 0, 8, 7, 6, 4], [4, 2, 6, 6, 3, 4, 4]]","[[3, 3, 3, 3, 3, 3, 3], [3, 3, 3, 3, 3, 3, 3], [3, 3, 3, 3, 3, 3, 3], [3, 3, 3, 3, 3, 3, 3], [3, 3, 3, 3, 3, 3, 3]]","[4, 2, 2, 1, 1]",1.2,22,3,0.058,0.058,0.0,[],control,-1,False,False,False,False,7,5,3,implicit-mouselab,24,197634,0.0-3.0-21.0,5d11cf66e555d5001ac10ceb,5faed821735c4c09a01dbe66,5faed946eb2a430991990c33,default,2
mouselab,False,[],"[[10, 4, 3, 4, 7, 4, 10], [6, 7, 4, 6, 5, 5, 3], [5, 4, 7, 6, 5, 5, 3], [8, 6, 7, 4, 6, 7, 7], [3, 4, 5, 6, 8, 5, 5]]","[[4, 4, 4, 4, 4, 4, 4], [4, 4, 4, 4, 4, 4, 4], [4, 4, 4, 4, 4, 4, 4], [4, 4, 4, 4, 4, 4, 4], [4, 4, 4, 4, 4, 4, 4]]","[2, 3, 1, 2, 2]",0.4,23,5,0.052,0.052,0.0,[],control,-1,False,False,False,False,7,5,4,implicit-mouselab,25,199723,0.0-3.0-22.0,5d11cf66e555d5001ac10ceb,5faed821735c4c09a01dbe66,5faed946eb2a430991990c33,default,2
mouselab,False,[],"[[6, 6, 6, 10, 4, 3, 4], [7, 3, 8, 3, 4, 4, 4], [7, 5, 7, 8, 2, 6, 4], [3, 1, 5, 9, 2, 5, 6], [7, 6, 4, 7, 6, 3, 4]]","[[4, 4, 4, 4, 4, 4, 4], [4, 4, 4, 4, 4, 4, 4], [4, 4, 4, 4, 4, 4, 4], [4, 4, 4, 4, 4, 4, 4], [4, 4, 4, 4, 4, 4, 4]]","[1, 2, 2, 4, 1]",1.2,24,2,0.06,0.06,0.0,[],default,3,False,False,False,False,7,5,4,implicit-mouselab,26,203663,0.0-3.0-23.0,5d11cf66e555d5001ac10ceb,5faed821735c4c09a01dbe66,5faed946eb2a430991990c33,default,2
mouselab,True,"[3, 3, 19, 19, 22, 22, 12, 12, 7, 7, 34, 34, 20, 20, 27, 27, 25, 25, 24, 24, 17, 17, 10, 10, 31, 31, 15, 15, 8, 8, 1, 1, 2, 2, 4, 4, 5, 5, 6, 6, 0, 0, 14, 14, 16, 16, 9, 9, 11, 11, 18, 18, 26, 26, 33, 33, 32, 32, 13, 13, 23, 23, 30, 30, 29, 29, 28, 28, 21, 21, 32]","[[0, 7, 6, 5, 8, 4, 6], [5, 5, 3, 7, 5, 4, 5], [3, 6, 7, 2, 4, 5, 6], [7, 5, 5, 6, 4, 3, 6], [6, 1, 5, 6, 6, 4, 5]]","[[0, 0, 0, 0, 0, 0, 0], [0, 0, 0, 0, 0, 0, 0], [0, 0, 0, 0, 0, 0, 0], [0, 0, 0, 0, 0, 0, 0], [0, 0, 0, 0, 0, 0, 0]]","[5, 1, 2, 1, 1]",2.4,1,4,0.063,-0.007000000000000006,0.07,"[3, 19, 22, 12, 7, 34, 20, 27, 25, 24, 17, 10, 31, 15, 8, 1, 2, 4, 5, 6, 0, 14, 16, 9, 11, 18, 26, 33, 32, 13, 23, 30, 29, 28, 21]",control,-1,False,False,False,False,7,5,2,implicit-mouselab,4,216766,0.0-3.0-1.0,5d40688398eff00001b7f3de,5faed821735c4c09a01dbe66,5faed8c43af98c098fd57f52,default,3
mouselab,True,[],"[[6, 10], [5, 5]]","[[3, 3], [3, 3]]","[6, 4]",1.0,2,0,0.056,0.056,0.0,[],control,-1,False,False,False,False,2,2,3,implicit-mouselab,5,227576,0.0-3.0-2.0,5d40688398eff00001b7f3de,5faed821735c4c09a01dbe66,5faed8c43af98c098fd57f52,default,3
mouselab,False,[],"[[5, 3, 4, 5, 5, 6, 7], [6, 4, 3, 2, 6, 4, 5], [6, 4, 5, 6, 3, 5, 4], [7, 5, 3, 7, 4, 4, 3], [4, 2, 7, 4, 4, 6, 4]]","[[1, 1, 1, 1, 1, 1, 1], [1, 1, 1, 1, 1, 1, 1], [1, 1, 1, 1, 1, 1, 1], [1, 1, 1, 1, 1, 1, 1], [1, 1, 1, 1, 1, 1, 1]]","[2, 1, 2, 2, 3]",0.4,5,6,0.045,0.045,0.0,[],default,6,True,False,True,False,7,5,1,implicit-mouselab,7,238031,0.0-3.0-4.0,5d40688398eff00001b7f3de,5faed821735c4c09a01dbe66,5faed8c43af98c098fd57f52,default,3
mouselab,False,[],"[[7, 4, 5, 2, 4, 7, 4], [1, 6, 4, 4, 4, 6, 5]]","[[1, 1, 1, 1, 1, 1, 1], [1, 1, 1, 1, 1, 1, 1]]","[1, 9]",16.0,6,0,0.016,0.016,0.0,[],default,0,True,False,True,False,7,2,1,implicit-mouselab,8,243743,0.0-3.0-5.0,5d40688398eff00001b7f3de,5faed821735c4c09a01dbe66,5faed8c43af98c098fd57f52,default,3
mouselab,False,[],"[[6, 7], [8, 6]]","[[2, 2], [2, 2]]","[6, 4]",1.0,7,1,0.066,0.066,0.0,[],control,-1,False,False,False,False,2,2,2,implicit-mouselab,9,249087,0.0-3.0-6.0,5d40688398eff00001b7f3de,5faed821735c4c09a01dbe66,5faed8c43af98c098fd57f52,default,3
mouselab,False,[],"[[3, 3], [6, 5]]","[[3, 3], [3, 3]]","[5, 5]",0.0,8,1,0.04,0.04,0.0,[],control,-1,False,False,False,False,2,2,3,implicit-mouselab,10,254991,0.0-3.0-7.0,5d40688398eff00001b7f3de,5faed821735c4c09a01dbe66,5faed8c43af98c098fd57f52,default,3
mouselab,False,[],"[[2, 5], [7, 9], [5, 6], [5, 5], [5, 7]]","[[2, 2], [2, 2], [2, 2], [2, 2], [2, 2]]","[2, 1, 3, 2, 2]",0.4,9,0,0.046,0.046,0.0,[],control,-1,False,False,False,False,2,5,2,implicit-mouselab,11,261655,0.0-3.0-8.0,5d40688398eff00001b7f3de,5faed821735c4c09a01dbe66,5faed8c43af98c098fd57f52,default,3
mouselab,False,[],"[[5, 5], [4, 4]]","[[3, 3], [3, 3]]","[6, 4]",1.0,10,0,0.046,0.046,0.0,[],default,0,True,False,True,False,2,2,3,implicit-mouselab,12,266199,0.0-3.0-9.0,5d40688398eff00001b7f3de,5faed821735c4c09a01dbe66,5faed8c43af98c098fd57f52,default,3
mouselab,False,[],"[[7, 6], [6, 1]]","[[4, 4], [4, 4]]","[3, 7]",4.0,11,1,0.025,0.025,0.0,[],control,-1,False,False,False,False,2,2,4,implicit-mouselab,13,269847,0.0-3.0-10.0,5d40688398eff00001b7f3de,5faed821735c4c09a01dbe66,5faed8c43af98c098fd57f52,default,3
mouselab,False,[],"[[4, 5, 5, 7, 5, 5, 5], [3, 6, 8, 5, 2, 4, 6]]","[[2, 2, 2, 2, 2, 2, 2], [2, 2, 2, 2, 2, 2, 2]]","[3, 7]",4.0,12,4,0.029,0.029,0.0,[],control,-1,False,False,False,False,7,2,2,implicit-mouselab,14,273359,0.0-3.0-11.0,5d40688398eff00001b7f3de,5faed821735c4c09a01dbe66,5faed8c43af98c098fd57f52,default,3
mouselab,False,[],"[[6, 6], [3, 4], [5, 1], [4, 4], [6, 4]]","[[3, 3], [3, 3], [3, 3], [3, 3], [3, 3]]","[1, 4, 2, 1, 2]",1.2,13,1,0.036,0.036,0.0,[],control,-1,False,False,False,False,2,5,3,implicit-mouselab,15,278815,0.0-3.0-12.0,5d40688398eff00001b7f3de,5faed821735c4c09a01dbe66,5faed8c43af98c098fd57f52,default,3
mouselab,False,[],"[[4, 4, 5, 9, 5, 9, 2], [5, 6, 4, 5, 6, 4, 5], [6, 8, 5, 5, 5, 4, 6], [9, 7, 5, 8, 6, 8, 5], [5, 6, 4, 3, 5, 3, 4]]","[[2, 2, 2, 2, 2, 2, 2], [2, 2, 2, 2, 2, 2, 2], [2, 2, 2, 2, 2, 2, 2], [2, 2, 2, 2, 2, 2, 2], [2, 2, 2, 2, 2, 2, 2]]","[3, 3, 1, 1, 2]",0.8,14,6,0.04,0.04,0.0,[],control,-1,False,False,False,False,7,5,2,implicit-mouselab,16,285399,0.0-3.0-13.0,5d40688398eff00001b7f3de,5faed821735c4c09a01dbe66,5faed8c43af98c098fd57f52,default,3
mouselab,False,[],"[[6, 6, 3, 4, 2, 4, 4], [6, 6, 6, 4, 2, 4, 6], [8, 1, 9, 8, 2, 6, 7], [6, 3, 4, 6, 7, 6, 5], [6, 4, 5, 8, 6, 3, 7]]","[[1, 1, 1, 1, 1, 1, 1], [1, 1, 1, 1, 1, 1, 1], [1, 1, 1, 1, 1, 1, 1], [1, 1, 1, 1, 1, 1, 1], [1, 1, 1, 1, 1, 1, 1]]","[2, 1, 1, 4, 2]",1.2,15,6,0.055,0.055,0.0,[],default,6,True,False,True,False,7,5,1,implicit-mouselab,17,289830,0.0-3.0-14.0,5d40688398eff00001b7f3de,5faed821735c4c09a01dbe66,5faed8c43af98c098fd57f52,default,3
mouselab,False,[],"[[5, 2, 5, 4, 4, 3, 3], [5, 4, 2, 5, 4, 4, 9]]","[[4, 4, 4, 4, 4, 4, 4], [4, 4, 4, 4, 4, 4, 4]]","[2, 8]",9.0,16,1,0.036,0.036,0.0,[],default,1,False,False,True,False,7,2,4,implicit-mouselab,18,295398,0.0-3.0-15.0,5d40688398eff00001b7f3de,5faed821735c4c09a01dbe66,5faed8c43af98c098fd57f52,default,3
mouselab,False,[],"[[9, 6], [6, 5]]","[[4, 4], [4, 4]]","[5, 5]",0.0,17,0,0.075,0.075,0.0,[],default,0,True,False,True,False,2,2,4,implicit-mouselab,19,299998,0.0-3.0-16.0,5d40688398eff00001b7f3de,5faed821735c4c09a01dbe66,5faed8c43af98c098fd57f52,default,3
mouselab,False,[],"[[4, 6], [8, 5]]","[[4, 4], [4, 4]]","[6, 4]",1.0,18,1,0.056,0.056,0.0,[],default,0,False,False,False,False,2,2,4,implicit-mouselab,20,307318,0.0-3.0-17.0,5d40688398eff00001b7f3de,5faed821735c4c09a01dbe66,5faed8c43af98c098fd57f52,default,3
mouselab,False,[],"[[2, 6, 5, 3, 4, 4, 6], [0, 7, 6, 4, 4, 4, 4], [7, 6, 6, 7, 5, 9, 4], [7, 5, 4, 5, 6, 7, 4], [7, 6, 5, 4, 7, 5, 9]]","[[1, 1, 1, 1, 1, 1, 1], [1, 1, 1, 1, 1, 1, 1], [1, 1, 1, 1, 1, 1, 1], [1, 1, 1, 1, 1, 1, 1], [1, 1, 1, 1, 1, 1, 1]]","[1, 2, 1, 3, 3]",0.8,19,5,0.057,0.057,0.0,[],control,-1,False,False,False,False,7,5,1,implicit-mouselab,21,313454,0.0-3.0-18.0,5d40688398eff00001b7f3de,5faed821735c4c09a01dbe66,5faed8c43af98c098fd57f52,default,3
mouselab,False,[],"[[6, 1, 3, 6, 4, 3, 4], [2, 3, 8, 7, 7, 5, 8], [4, 5, 5, 7, 8, 7, 3], [6, 4, 3, 6, 5, 6, 5], [2, 8, 4, 5, 3, 7, 6]]","[[3, 3, 3, 3, 3, 3, 3], [3, 3, 3, 3, 3, 3, 3], [3, 3, 3, 3, 3, 3, 3], [3, 3, 3, 3, 3, 3, 3], [3, 3, 3, 3, 3, 3, 3]]","[2, 1, 1, 5, 1]",2.4,20,0,0.05,0.05,0.0,[],default,0,True,False,True,False,7,5,3,implicit-mouselab,22,318822,0.0-3.0-19.0,5d40688398eff00001b7f3de,5faed821735c4c09a01dbe66,5faed8c43af98c098fd57f52,default,3
mouselab,False,[],"[[6, 7, 5, 4, 3, 5, 3], [9, 5, 4, 4, 6, 3, 7], [7, 3, 3, 8, 5, 1, 10], [3, 5, 6, 7, 3, 5, 5], [7, 8, 5, 2, 6, 3, 6]]","[[1, 1, 1, 1, 1, 1, 1], [1, 1, 1, 1, 1, 1, 1], [1, 1, 1, 1, 1, 1, 1], [1, 1, 1, 1, 1, 1, 1], [1, 1, 1, 1, 1, 1, 1]]","[1, 1, 2, 5, 1]",2.4,21,5,0.038,0.038,0.0,[],control,-1,False,False,False,False,7,5,1,implicit-mouselab,23,322510,0.0-3.0-20.0,5d40688398eff00001b7f3de,5faed821735c4c09a01dbe66,5faed8c43af98c098fd57f52,default,3
mouselab,False,[],"[[3, 4, 5, 4, 4, 7, 7], [7, 5, 3, 6, 4, 7, 4], [7, 4, 7, 4, 3, 7, 4], [6, 7, 6, 4, 7, 3, 4], [6, 5, 0, 6, 4, 5, 5]]","[[3, 3, 3, 3, 3, 3, 3], [3, 3, 3, 3, 3, 3, 3], [3, 3, 3, 3, 3, 3, 3], [3, 3, 3, 3, 3, 3, 3], [3, 3, 3, 3, 3, 3, 3]]","[1, 3, 1, 4, 1]",1.6,22,2,0.045,0.045,0.0,[],default,2,True,False,True,False,7,5,3,implicit-mouselab,24,329102,0.0-3.0-21.0,5d40688398eff00001b7f3de,5faed821735c4c09a01dbe66,5faed8c43af98c098fd57f52,default,3
mouselab,False,[],"[[3, 9], [4, 8], [4, 6], [6, 6], [6, 4]]","[[4, 4], [4, 4], [4, 4], [4, 4], [4, 4]]","[1, 2, 1, 2, 4]",1.2,23,1,0.059,0.059,0.0,[],control,-1,False,False,False,False,2,5,4,implicit-mouselab,25,331702,0.0-3.0-22.0,5d40688398eff00001b7f3de,5faed821735c4c09a01dbe66,5faed8c43af98c098fd57f52,default,3
mouselab,False,[],"[[5, 7], [4, 7]]","[[2, 2], [2, 2]]","[8, 2]",9.0,24,0,0.048,0.048,0.0,[],default,0,True,False,True,False,2,2,2,implicit-mouselab,26,335110,0.0-3.0-23.0,5d40688398eff00001b7f3de,5faed821735c4c09a01dbe66,5faed8c43af98c098fd57f52,default,3
mouselab,True,"[8, 8, 8, 4, 4, 4, 13, 13, 13, 0, 0, 0, 6, 6, 6, 1, 1, 1, 9, 9, 9, 7, 7, 7, 2, 2, 2, 2, 3, 3, 3, 5, 5, 5, 12, 12, 12, 11, 11, 11, 11, 10, 10, 10, 12]","[[6, 7, 3, 2, 7, 5, 5], [8, 6, 3, 7, 4, 4, 2]]","[[0, 0, 0, 0, 0, 0, 0], [0, 0, 0, 0, 0, 0, 0]]","[1, 9]",16.0,1,5,0.041,-0.0010000000000000009,0.042,"[8, 4, 13, 0, 6, 1, 9, 7, 2, 3, 5, 12, 11, 10]",control,-1,False,False,False,False,7,2,3,implicit-mouselab,4,174831,0.0-3.0-1.0,5ef9bbbe7dcd6575f5306531,5faed821735c4c09a01dbe66,5faed8de5c9742099ff6d20c,default,4
mouselab,True,"[9, 9, 9, 5, 5, 5]","[[8, 4], [5, 5], [4, 3], [6, 4], [6, 2]]","[[2, 2], [2, 2], [2, 0], [2, 2], [2, 0]]","[1, 2, 3, 1, 3]",0.8,2,1,0.033,0.029,0.004,"[9, 5]",control,-1,False,False,False,False,2,5,2,implicit-mouselab,5,187662,0.0-3.0-2.0,5ef9bbbe7dcd6575f5306531,5faed821735c4c09a01dbe66,5faed8de5c9742099ff6d20c,default,4
mouselab,False,[],"[[5, 8, 3, 4, 8, 5, 4], [6, 5, 4, 5, 3, 3, 4]]","[[3, 3, 3, 3, 3, 3, 3], [3, 3, 3, 3, 3, 3, 3]]","[4, 6]",1.0,5,5,0.038,0.038,0.0,[],default,5,True,False,True,False,7,2,3,implicit-mouselab,7,197247,0.0-3.0-4.0,5ef9bbbe7dcd6575f5306531,5faed821735c4c09a01dbe66,5faed8de5c9742099ff6d20c,default,4
mouselab,False,[],"[[5, 3], [3, 8]]","[[2, 2], [2, 2]]","[5, 5]",0.0,6,1,0.055,0.055,0.0,[],default,1,True,False,True,False,2,2,2,implicit-mouselab,8,203216,0.0-3.0-5.0,5ef9bbbe7dcd6575f5306531,5faed821735c4c09a01dbe66,5faed8de5c9742099ff6d20c,default,4
mouselab,False,"[13, 13, 13, 13, 31, 31, 31]","[[5, 6, 6, 4, 9, 3, 5], [5, 4, 5, 5, 6, 8, 6], [7, 8, 4, 6, 5, 6, 6], [5, 5, 4, 9, 4, 4, 1], [7, 4, 5, 6, 5, 2, 6]]","[[2, 2, 2, 2, 2, 2, 2], [2, 2, 2, 2, 2, 2, 0], [2, 2, 2, 2, 2, 2, 2], [2, 2, 2, 2, 2, 2, 2], [2, 2, 2, 0, 2, 2, 2]]","[1, 3, 1, 1, 4]",1.6,7,6,0.054,0.05,0.004,"[13, 31]",control,-1,False,False,False,False,7,5,2,implicit-mouselab,9,236927,0.0-3.0-6.0,5ef9bbbe7dcd6575f5306531,5faed821735c4c09a01dbe66,5faed8de5c9742099ff6d20c,default,4
mouselab,False,"[6, 34]","[[4, 3, 4, 3, 6, 5, 4], [5, 5, 4, 4, 7, 1, 3], [2, 5, 6, 6, 5, 4, 4], [5, 4, 4, 5, 4, 6, 2], [5, 3, 6, 3, 3, 4, 3]]","[[1, 1, 1, 1, 1, 1, 0], [1, 1, 1, 1, 1, 1, 1], [1, 1, 1, 1, 1, 1, 1], [1, 1, 1, 1, 1, 1, 1], [1, 1, 1, 1, 1, 1, 0]]","[3, 2, 1, 1, 3]",0.8,8,6,0.033,0.031,0.002,"[6, 34]",control,-1,False,False,False,False,7,5,1,implicit-mouselab,10,249870,0.0-3.0-7.0,5ef9bbbe7dcd6575f5306531,5faed821735c4c09a01dbe66,5faed8de5c9742099ff6d20c,default,4
mouselab,False,[0],"[[4, 3], [8, 6]]","[[0, 1], [1, 1]]","[9, 1]",16.0,9,1,0.033,0.032,0.001,[0],control,-1,False,False,False,False,2,2,1,implicit-mouselab,11,256335,0.0-3.0-8.0,5ef9bbbe7dcd6575f5306531,5faed821735c4c09a01dbe66,5faed8de5c9742099ff6d20c,default,4
mouselab,False,[],"[[9, 5], [4, 4], [6, 2], [8, 1], [7, 4]]","[[1, 1], [1, 1], [1, 1], [1, 1], [1, 1]]","[1, 1, 2, 4, 2]",1.2,10,1,0.025,0.025,0.0,[],default,1,True,False,True,False,2,5,1,implicit-mouselab,12,260054,0.0-3.0-9.0,5ef9bbbe7dcd6575f5306531,5faed821735c4c09a01dbe66,5faed8de5c9742099ff6d20c,default,4
mouselab,False,[],"[[7, 4], [4, 4]]","[[2, 2], [2, 2]]","[5, 5]",0.0,11,0,0.055,0.055,0.0,[],default,0,True,False,True,False,2,2,2,implicit-mouselab,13,263038,0.0-3.0-10.0,5ef9bbbe7dcd6575f5306531,5faed821735c4c09a01dbe66,5faed8de5c9742099ff6d20c,default,4
mouselab,False,"[1, 1, 1, 1]","[[8, 7], [3, 5], [8, 7], [4, 5], [5, 7]]","[[4, 0], [4, 4], [4, 4], [4, 4], [4, 4]]","[4, 3, 1, 1, 1]",1.6,12,1,0.062,0.057999999999999996,0.004,[1],control,-1,False,False,False,False,2,5,4,implicit-mouselab,14,271192,0.0-3.0-11.0,5ef9bbbe7dcd6575f5306531,5faed821735c4c09a01dbe66,5faed8de5c9742099ff6d20c,default,4
mouselab,False,[],"[[0, 2, 6, 3, 5, 4, 6], [4, 5, 7, 5, 4, 3, 4], [6, 5, 7, 4, 6, 6, 5], [6, 4, 7, 4, 5, 5, 4], [6, 8, 3, 3, 2, 5, 7]]","[[4, 4, 4, 4, 4, 4, 4], [4, 4, 4, 4, 4, 4, 4], [4, 4, 4, 4, 4, 4, 4], [4, 4, 4, 4, 4, 4, 4], [4, 4, 4, 4, 4, 4, 4]]","[1, 2, 2, 4, 1]",1.2,13,1,0.046,0.046,0.0,[],default,1,True,False,True,False,7,5,4,implicit-mouselab,15,276054,0.0-3.0-12.0,5ef9bbbe7dcd6575f5306531,5faed821735c4c09a01dbe66,5faed8de5c9742099ff6d20c,default,4
mouselab,False,"[4, 4]","[[4, 5], [5, 4], [5, 3], [5, 4], [6, 4]]","[[2, 2], [2, 2], [0, 2], [2, 2], [2, 2]]","[1, 1, 3, 2, 3]",0.8,14,0,0.052,0.049999999999999996,0.002,[4],control,-1,False,False,False,False,2,5,2,implicit-mouselab,16,281990,0.0-3.0-13.0,5ef9bbbe7dcd6575f5306531,5faed821735c4c09a01dbe66,5faed8de5c9742099ff6d20c,default,4
mouselab,False,"[34, 34, 34, 34]","[[2, 4, 5, 2, 4, 4, 6], [6, 6, 5, 4, 2, 3, 7], [2, 3, 4, 7, 6, 7, 7], [4, 6, 5, 6, 4, 4, 7], [5, 0, 3, 4, 4, 6, 6]]","[[4, 4, 4, 4, 4, 4, 4], [4, 4, 4, 4, 4, 4, 4], [4, 4, 4, 4, 4, 4, 4], [4, 4, 4, 4, 4, 4, 4], [4, 4, 4, 4, 4, 4, 0]]","[2, 2, 2, 1, 3]",0.4,15,6,0.065,0.061,0.004,[34],control,-1,False,False,False,False,7,5,4,implicit-mouselab,17,290591,0.0-3.0-14.0,5ef9bbbe7dcd6575f5306531,5faed821735c4c09a01dbe66,5faed8de5c9742099ff6d20c,default,4
mouselab,False,"[10, 10, 10, 10]","[[4, 5, 8, 5, 6, 5, 3], [3, 8, 4, 5, 3, 6, 8], [3, 5, 3, 6, 10, 7, 4], [7, 7, 5, 8, 8, 5, 7], [6, 6, 6, 6, 8, 5, 7]]","[[4, 4, 4, 4, 4, 4, 4], [4, 4, 4, 0, 4, 4, 4], [4, 4, 4, 4, 4, 4, 4], [4, 4, 4, 4, 4, 4, 4], [4, 4, 4, 4, 4, 4, 4]]","[5, 1, 1, 2, 1]",2.4,16,3,0.058,0.054000000000000006,0.004,[10],control,-1,False,False,False,False,7,5,4,implicit-mouselab,18,297111,0.0-3.0-15.0,5ef9bbbe7dcd6575f5306531,5faed821735c4c09a01dbe66,5faed8de5c9742099ff6d20c,default,4
mouselab,False,[],"[[5, 6], [6, 5], [8, 5], [6, 4], [3, 4]]","[[3, 3], [3, 3], [3, 3], [3, 3], [3, 3]]","[2, 2, 2, 1, 3]",0.4,17,0,0.053,0.053,0.0,[],default,0,True,False,True,False,2,5,3,implicit-mouselab,19,300862,0.0-3.0-16.0,5ef9bbbe7dcd6575f5306531,5faed821735c4c09a01dbe66,5faed8de5c9742099ff6d20c,default,4
mouselab,False,[],"[[5, 7, 7, 4, 7, 5, 1], [6, 5, 2, 7, 6, 5, 4]]","[[3, 3, 3, 3, 3, 3, 3], [3, 3, 3, 3, 3, 3, 3]]","[6, 4]",1.0,18,1,0.062,0.062,0.0,[],default,1,True,False,True,False,7,2,3,implicit-mouselab,20,304966,0.0-3.0-17.0,5ef9bbbe7dcd6575f5306531,5faed821735c4c09a01dbe66,5faed8de5c9742099ff6d20c,default,4
mouselab,False,"[2, 2, 2, 13, 13, 13]","[[3, 7, 5, 7, 5, 3, 3], [5, 9, 5, 6, 5, 7, 5]]","[[3, 3, 0, 3, 3, 3, 3], [3, 3, 3, 3, 3, 3, 0]]","[4, 6]",1.0,19,6,0.042,0.036000000000000004,0.006,"[2, 13]",control,-1,False,False,False,False,7,2,3,implicit-mouselab,21,310191,0.0-3.0-18.0,5ef9bbbe7dcd6575f5306531,5faed821735c4c09a01dbe66,5faed8de5c9742099ff6d20c,default,4
mouselab,False,"[0, 0, 0]","[[5, 8], [3, 4]]","[[0, 1], [1, 1]]","[7, 3]",4.0,20,0,0.044,0.043,0.001,[0],control,-1,False,False,False,False,2,2,1,implicit-mouselab,22,313902,0.0-3.0-19.0,5ef9bbbe7dcd6575f5306531,5faed821735c4c09a01dbe66,5faed8de5c9742099ff6d20c,default,4
mouselab,False,[],"[[6, 9, 5, 5, 6, 4, 1], [3, 4, 4, 5, 7, 4, 5]]","[[4, 4, 4, 4, 4, 4, 4], [4, 4, 4, 4, 4, 4, 4]]","[4, 6]",1.0,21,5,0.04,0.04,0.0,[],default,5,True,False,True,False,7,2,4,implicit-mouselab,23,316790,0.0-3.0-20.0,5ef9bbbe7dcd6575f5306531,5faed821735c4c09a01dbe66,5faed8de5c9742099ff6d20c,default,4
mouselab,False,[],"[[4, 5, 7, 7, 7, 3, 7], [5, 0, 7, 5, 5, 5, 4], [5, 6, 5, 2, 4, 4, 6], [5, 5, 8, 5, 6, 3, 4], [5, 6, 6, 8, 7, 2, 6]]","[[2, 2, 2, 2, 2, 2, 2], [2, 2, 2, 2, 2, 2, 2], [2, 2, 2, 2, 2, 2, 2], [2, 2, 2, 2, 2, 2, 2], [2, 2, 2, 2, 2, 2, 2]]","[2, 1, 1, 1, 5]",2.4,22,0,0.048,0.048,0.0,[],default,0,True,False,True,False,7,5,2,implicit-mouselab,24,325751,0.0-3.0-21.0,5ef9bbbe7dcd6575f5306531,5faed821735c4c09a01dbe66,5faed8de5c9742099ff6d20c,default,4
mouselab,False,[2],"[[4, 6], [5, 3]]","[[1, 1], [0, 1]]","[1, 9]",16.0,23,0,0.049,0.048,0.001,[2],control,-1,False,False,False,False,2,2,1,implicit-mouselab,25,329687,0.0-3.0-22.0,5ef9bbbe7dcd6575f5306531,5faed821735c4c09a01dbe66,5faed8de5c9742099ff6d20c,default,4
mouselab,False,[],"[[7, 4], [4, 6]]","[[3, 3], [3, 3]]","[3, 7]",4.0,24,1,0.054,0.054,0.0,[],default,1,True,False,True,False,2,2,3,implicit-mouselab,26,332654,0.0-3.0-23.0,5ef9bbbe7dcd6575f5306531,5faed821735c4c09a01dbe66,5faed8de5c9742099ff6d20c,default,4
mouselab,True,"[2, 4, 8]","[[6, 2, 4, 3, 7, 3, 7], [6, 3, 5, 4, 7, 2, 4]]","[[3, 3, 2, 3, 2, 3, 3], [3, 2, 3, 3, 3, 3, 3]]","[4, 6]",1.0,1,0,0.06,0.056999999999999995,0.003,[],control,-1,False,False,False,False,7,2,3,implicit-mouselab,4,58426,0.0-3.0-1.0,5ed666f2fca2cc084330501f,5faed821735c4c09a01dbe66,5faed9da756c370a336bf1cb,default,5
mouselab,True,[],"[[5, 2], [6, 6], [4, 7], [9, 4], [4, 3]]","[[2, 2], [2, 2], [2, 2], [2, 2], [2, 2]]","[2, 3, 3, 1, 1]",0.8,2,1,0.05,0.05,0.0,[],control,-1,False,False,False,False,2,5,2,implicit-mouselab,5,63622,0.0-3.0-2.0,5ed666f2fca2cc084330501f,5faed821735c4c09a01dbe66,5faed9da756c370a336bf1cb,default,5
mouselab,False,[],"[[7, 4, 6, 3, 3, 4, 4], [4, 4, 5, 5, 7, 5, 8], [4, 4, 3, 6, 6, 4, 5], [5, 5, 4, 7, 6, 4, 5], [4, 6, 7, 7, 7, 5, 4]]","[[3, 3, 3, 3, 3, 3, 3], [3, 3, 3, 3, 3, 3, 3], [3, 3, 3, 3, 3, 3, 3], [3, 3, 3, 3, 3, 3, 3], [3, 3, 3, 3, 3, 3, 3]]","[1, 1, 3, 3, 2]",0.8,5,4,0.06,0.06,0.0,[],control,-1,False,False,False,False,7,5,3,implicit-mouselab,7,70037,0.0-3.0-4.0,5ed666f2fca2cc084330501f,5faed821735c4c09a01dbe66,5faed9da756c370a336bf1cb,default,5
mouselab,False,[],"[[7, 6, 4, 4, 6, 4, 4], [9, 5, 5, 5, 3, 4, 5]]","[[2, 2, 2, 2, 2, 2, 2], [2, 2, 2, 2, 2, 2, 2]]","[1, 9]",16.0,6,0,0.088,0.088,0.0,[],default,0,True,False,True,False,7,2,2,implicit-mouselab,8,78899,0.0-3.0-5.0,5ed666f2fca2cc084330501f,5faed821735c4c09a01dbe66,5faed9da756c370a336bf1cb,default,5
mouselab,False,[],"[[5, 7], [7, 5]]","[[4, 4], [4, 4]]","[4, 6]",1.0,7,1,0.058,0.058,0.0,[],default,0,False,False,False,False,2,2,4,implicit-mouselab,9,85224,0.0-3.0-6.0,5ed666f2fca2cc084330501f,5faed821735c4c09a01dbe66,5faed9da756c370a336bf1cb,default,5
mouselab,False,[],"[[6, 6, 3, 3, 8, 4, 5], [2, 5, 4, 3, 4, 3, 2], [3, 5, 3, 7, 6, 9, 6], [6, 4, 7, 5, 3, 2, 4], [8, 6, 3, 7, 5, 6, 6]]","[[4, 4, 4, 4, 4, 4, 4], [4, 4, 4, 4, 4, 4, 4], [4, 4, 4, 4, 4, 4, 4], [4, 4, 4, 4, 4, 4, 4], [4, 4, 4, 4, 4, 4, 4]]","[3, 2, 2, 2, 1]",0.4,8,2,0.04,0.04,0.0,[],default,2,True,False,True,False,7,5,4,implicit-mouselab,10,90358,0.0-3.0-7.0,5ed666f2fca2cc084330501f,5faed821735c4c09a01dbe66,5faed9da756c370a336bf1cb,default,5
mouselab,False,"[16, 4, 26, 22, 28, 21, 7, 0]","[[6, 3, 6, 7, 7, 7, 6], [6, 4, 6, 4, 4, 4, 5], [1, 3, 1, 7, 4, 4, 10], [7, 5, 2, 4, 8, 4, 1], [7, 7, 6, 3, 6, 6, 4]]","[[1, 2, 2, 2, 1, 2, 2], [1, 2, 2, 2, 2, 2, 2], [2, 2, 1, 2, 2, 2, 2], [1, 1, 2, 2, 2, 1, 2], [1, 2, 2, 2, 2, 2, 2]]","[1, 4, 3, 1, 1]",1.6,9,3,0.051,0.043,0.008,[],default,1,False,False,False,False,7,5,2,implicit-mouselab,11,100674,0.0-3.0-8.0,5ed666f2fca2cc084330501f,5faed821735c4c09a01dbe66,5faed9da756c370a336bf1cb,default,5
mouselab,False,[],"[[4, 3, 6, 7, 6, 2, 4], [7, 4, 9, 1, 3, 2, 5]]","[[3, 3, 3, 3, 3, 3, 3], [3, 3, 3, 3, 3, 3, 3]]","[1, 9]",16.0,10,2,0.087,0.087,0.0,[],default,2,True,False,True,False,7,2,3,implicit-mouselab,12,103097,0.0-3.0-9.0,5ed666f2fca2cc084330501f,5faed821735c4c09a01dbe66,5faed9da756c370a336bf1cb,default,5
mouselab,False,[],"[[7, 6], [5, 6], [6, 5], [2, 6], [7, 2]]","[[2, 2], [2, 2], [2, 2], [2, 2], [2, 2]]","[1, 2, 3, 2, 2]",0.4,11,0,0.053,0.053,0.0,[],control,-1,False,False,False,False,2,5,2,implicit-mouselab,13,106624,0.0-3.0-10.0,5ed666f2fca2cc084330501f,5faed821735c4c09a01dbe66,5faed9da756c370a336bf1cb,default,5
mouselab,False,[],"[[6, 3], [6, 4]]","[[3, 3], [3, 3]]","[1, 9]",16.0,12,1,0.039,0.039,0.0,[],default,1,True,False,True,False,2,2,3,implicit-mouselab,14,110022,0.0-3.0-11.0,5ed666f2fca2cc084330501f,5faed821735c4c09a01dbe66,5faed9da756c370a336bf1cb,default,5
mouselab,False,[],"[[7, 4], [4, 4], [5, 5], [5, 3], [5, 4]]","[[3, 3], [3, 3], [3, 3], [3, 3], [3, 3]]","[2, 2, 2, 1, 3]",0.4,13,0,0.052,0.052,0.0,[],default,0,False,False,True,False,2,5,3,implicit-mouselab,15,113748,0.0-3.0-12.0,5ed666f2fca2cc084330501f,5faed821735c4c09a01dbe66,5faed9da756c370a336bf1cb,default,5
mouselab,False,[],"[[7, 5], [2, 4], [5, 5], [8, 8], [5, 6]]","[[1, 1], [1, 1], [1, 1], [1, 1], [1, 1]]","[1, 3, 1, 1, 4]",1.6,14,1,0.054,0.054,0.0,[],control,-1,False,False,False,False,2,5,1,implicit-mouselab,16,115587,0.0-3.0-13.0,5ed666f2fca2cc084330501f,5faed821735c4c09a01dbe66,5faed9da756c370a336bf1cb,default,5
mouselab,False,[],"[[6, 6], [3, 4]]","[[1, 1], [1, 1]]","[3, 7]",4.0,15,0,0.039,0.039,0.0,[],control,-1,False,False,False,False,2,2,1,implicit-mouselab,17,117264,0.0-3.0-14.0,5ed666f2fca2cc084330501f,5faed821735c4c09a01dbe66,5faed9da756c370a336bf1cb,default,5
mouselab,False,[],"[[4, 7], [6, 7]]","[[4, 4], [4, 4]]","[1, 9]",16.0,16,1,0.07,0.07,0.0,[],control,-1,False,False,False,False,2,2,4,implicit-mouselab,18,118500,0.0-3.0-15.0,5ed666f2fca2cc084330501f,5faed821735c4c09a01dbe66,5faed9da756c370a336bf1cb,default,5
mouselab,False,[],"[[6, 4, 5, 4, 6, 7, 4], [5, 1, 5, 4, 4, 2, 2], [2, 4, 7, 5, 4, 5, 5], [5, 4, 2, 2, 6, 4, 4], [6, 4, 5, 6, 4, 6, 6]]","[[1, 1, 1, 1, 1, 1, 1], [1, 1, 1, 1, 1, 1, 1], [1, 1, 1, 1, 1, 1, 1], [1, 1, 1, 1, 1, 1, 1], [1, 1, 1, 1, 1, 1, 1]]","[1, 1, 2, 4, 2]",1.2,17,6,0.044,0.044,0.0,[],default,6,True,False,True,False,7,5,1,implicit-mouselab,19,122283,0.0-3.0-16.0,5ed666f2fca2cc084330501f,5faed821735c4c09a01dbe66,5faed9da756c370a336bf1cb,default,5
mouselab,False,[],"[[5, 5, 6, 5, 7, 5, 1], [8, 4, 8, 6, 7, 3, 5]]","[[1, 1, 1, 1, 1, 1, 1], [1, 1, 1, 1, 1, 1, 1]]","[5, 5]",0.0,18,3,0.055,0.055,0.0,[],control,-1,False,False,False,False,7,2,1,implicit-mouselab,20,124022,0.0-3.0-17.0,5ed666f2fca2cc084330501f,5faed821735c4c09a01dbe66,5faed9da756c370a336bf1cb,default,5
mouselab,False,[],"[[3, 4, 6, 4, 4, 4, 6], [3, 1, 4, 5, 4, 7, 6]]","[[1, 1, 1, 1, 1, 1, 1], [1, 1, 1, 1, 1, 1, 1]]","[4, 6]",1.0,19,2,0.048,0.048,0.0,[],control,-1,False,False,False,False,7,2,1,implicit-mouselab,21,126437,0.0-3.0-18.0,5ed666f2fca2cc084330501f,5faed821735c4c09a01dbe66,5faed9da756c370a336bf1cb,default,5
mouselab,False,[],"[[2, 4], [5, 4], [7, 9], [4, 3], [3, 4]]","[[4, 4], [4, 4], [4, 4], [4, 4], [4, 4]]","[1, 6, 1, 1, 1]",4.0,20,1,0.044,0.044,0.0,[],default,1,True,False,True,False,2,5,4,implicit-mouselab,22,129256,0.0-3.0-19.0,5ed666f2fca2cc084330501f,5faed821735c4c09a01dbe66,5faed9da756c370a336bf1cb,default,5
mouselab,False,[],"[[5, 5], [8, 4]]","[[2, 2], [2, 2]]","[3, 7]",4.0,21,0,0.071,0.071,0.0,[],default,1,False,False,False,False,2,2,2,implicit-mouselab,23,131927,0.0-3.0-20.0,5ed666f2fca2cc084330501f,5faed821735c4c09a01dbe66,5faed9da756c370a336bf1cb,default,5
mouselab,False,[],"[[7, 1, 8, 6, 4, 4, 6], [2, 6, 6, 4, 5, 4, 7]]","[[4, 4, 4, 4, 4, 4, 4], [4, 4, 4, 4, 4, 4, 4]]","[9, 1]",16.0,22,1,0.015,0.015,0.0,[],control,-1,False,False,False,False,7,2,4,implicit-mouselab,24,134099,0.0-3.0-21.0,5ed666f2fca2cc084330501f,5faed821735c4c09a01dbe66,5faed9da756c370a336bf1cb,default,5
mouselab,False,[],"[[4, 3, 5, 6, 7, 2, 4], [5, 7, 8, 3, 8, 5, 5], [7, 7, 4, 6, 4, 3, 5], [10, 4, 5, 5, 4, 5, 6], [0, 4, 4, 5, 1, 7, 8]]","[[3, 3, 3, 3, 3, 3, 3], [3, 3, 3, 3, 3, 3, 3], [3, 3, 3, 3, 3, 3, 3], [3, 3, 3, 3, 3, 3, 3], [3, 3, 3, 3, 3, 3, 3]]","[1, 1, 6, 1, 1]",4.0,23,3,0.055,0.055,0.0,[],control,-1,False,False,False,False,7,5,3,implicit-mouselab,25,136425,0.0-3.0-22.0,5ed666f2fca2cc084330501f,5faed821735c4c09a01dbe66,5faed9da756c370a336bf1cb,default,5
mouselab,False,[],"[[4, 4], [6, 4], [1, 6], [5, 2], [5, 5]]","[[2, 2], [2, 2], [2, 2], [2, 2], [2, 2]]","[1, 2, 2, 1, 4]",1.2,24,0,0.043,0.043,0.0,[],control,-1,False,False,False,False,2,5,2,implicit-mouselab,26,138403,0.0-3.0-23.0,5ed666f2fca2cc084330501f,5faed821735c4c09a01dbe66,5faed9da756c370a336bf1cb,default,5
mouselab,True,"[3, 3, 12, 11, 12, 11, 6, 5, 4, 4, 5, 6, 0, 7, 1, 8, 1, 8, 7, 0, 2, 13, 10, 9, 2, 9, 10, 13, 12, 0]","[[1, 3, 4, 3, 5, 5, 4], [5, 6, 6, 5, 4, 6, 8]]","[[0, 0, 0, 0, 0, 0, 0], [0, 0, 0, 0, 0, 0, 0]]","[7, 3]",4.0,1,6,0.052,0.023999999999999997,0.028,"[3, 12, 11, 4, 5, 6, 1, 8, 7, 0, 2, 9, 10, 13]",control,-1,False,False,False,False,7,2,2,implicit-mouselab,4,136569,0.0-3.0-1.0,5f4188feb5f457341013737d,5faed821735c4c09a01dbe66,5faed931d6498b0a08a2fb89,default,7
mouselab,True,"[5, 5, 5]","[[6, 8], [8, 6], [3, 5], [3, 4], [3, 3]]","[[3, 3], [3, 3], [3, 0], [3, 3], [3, 3]]","[1, 2, 1, 1, 5]",2.4,2,1,0.044,0.040999999999999995,0.003,[5],control,-1,False,False,False,False,2,5,3,implicit-mouselab,5,148962,0.0-3.0-2.0,5f4188feb5f457341013737d,5faed821735c4c09a01dbe66,5faed931d6498b0a08a2fb89,default,7
mouselab,False,[],"[[5, 4, 5, 2, 8, 7, 8], [6, 4, 3, 6, 2, 6, 4], [6, 4, 4, 4, 3, 6, 1], [4, 5, 5, 2, 6, 5, 6], [3, 5, 3, 4, 7, 5, 5]]","[[1, 1, 1, 1, 1, 1, 1], [1, 1, 1, 1, 1, 1, 1], [1, 1, 1, 1, 1, 1, 1], [1, 1, 1, 1, 1, 1, 1], [1, 1, 1, 1, 1, 1, 1]]","[1, 3, 1, 1, 4]",1.6,5,1,0.045,0.045,0.0,[],default,1,True,False,True,False,7,5,1,implicit-mouselab,7,165777,0.0-3.0-4.0,5f4188feb5f457341013737d,5faed821735c4c09a01dbe66,5faed931d6498b0a08a2fb89,default,7
mouselab,False,"[3, 3, 3, 3]","[[6, 4], [4, 1]]","[[4, 4], [4, 0]]","[3, 7]",4.0,6,0,0.046,0.041999999999999996,0.004,[3],control,-1,False,False,False,False,2,2,4,implicit-mouselab,8,176773,0.0-3.0-5.0,5f4188feb5f457341013737d,5faed821735c4c09a01dbe66,5faed931d6498b0a08a2fb89,default,7
mouselab,False,"[7, 8, 9, 8, 8, 8, 9, 9, 9, 7, 7, 7]","[[2, 3, 6, 4, 9, 2, 5], [7, 4, 5, 8, 6, 7, 4]]","[[4, 4, 4, 4, 4, 4, 4], [0, 0, 0, 4, 4, 4, 4]]","[6, 4]",1.0,7,0,0.04,0.028,0.012,"[8, 9, 7]",control,-1,False,False,False,False,7,2,4,implicit-mouselab,9,194308,0.0-3.0-6.0,5f4188feb5f457341013737d,5faed821735c4c09a01dbe66,5faed931d6498b0a08a2fb89,default,7
mouselab,False,[],"[[4, 7], [6, 4]]","[[3, 3], [3, 3]]","[1, 9]",16.0,8,0,0.058,0.058,0.0,[],default,0,True,False,True,False,2,2,3,implicit-mouselab,10,198721,0.0-3.0-7.0,5f4188feb5f457341013737d,5faed821735c4c09a01dbe66,5faed931d6498b0a08a2fb89,default,7
mouselab,False,"[10, 13, 7]","[[7, 4, 4, 6, 4, 5, 7], [6, 5, 4, 4, 5, 0, 4]]","[[1, 1, 1, 1, 1, 1, 1], [0, 1, 1, 0, 1, 1, 0]]","[9, 1]",16.0,9,0,0.069,0.066,0.003,"[10, 13, 7]",default,3,False,False,False,False,7,2,1,implicit-mouselab,11,207207,0.0-3.0-8.0,5f4188feb5f457341013737d,5faed821735c4c09a01dbe66,5faed931d6498b0a08a2fb89,default,7
mouselab,False,[],"[[2, 9], [6, 8]]","[[4, 4], [4, 4]]","[7, 3]",4.0,10,0,0.032,0.032,0.0,[],default,0,True,False,True,False,2,2,4,implicit-mouselab,12,210833,0.0-3.0-9.0,5f4188feb5f457341013737d,5faed821735c4c09a01dbe66,5faed931d6498b0a08a2fb89,default,7
mouselab,False,"[28, 28, 28, 34, 34, 34, 31, 31, 31]","[[2, 3, 5, 6, 7, 4, 8], [6, 7, 3, 5, 2, 6, 6], [3, 5, 5, 5, 5, 4, 4], [7, 2, 1, 3, 3, 4, 6], [2, 4, 4, 4, 2, 3, 6]]","[[3, 3, 3, 3, 3, 3, 3], [3, 3, 3, 3, 3, 3, 3], [3, 3, 3, 3, 3, 3, 3], [3, 3, 3, 3, 3, 3, 3], [0, 3, 3, 0, 3, 3, 0]]","[3, 2, 2, 2, 1]",0.4,11,6,0.062,0.053,0.009,"[28, 34, 31]",control,-1,False,False,False,False,7,5,3,implicit-mouselab,13,221418,0.0-3.0-10.0,5f4188feb5f457341013737d,5faed821735c4c09a01dbe66,5faed931d6498b0a08a2fb89,default,7
mouselab,False,"[30, 30, 13, 7]","[[9, 5, 5, 8, 9, 7, 5], [9, 6, 5, 6, 6, 7, 5], [2, 7, 4, 5, 2, 3, 8], [7, 5, 7, 3, 4, 5, 7], [5, 2, 5, 5, 6, 6, 3]]","[[1, 1, 1, 1, 1, 1, 1], [0, 1, 1, 1, 1, 1, 0], [1, 1, 1, 1, 1, 1, 1], [1, 1, 1, 1, 1, 1, 1], [1, 1, 0, 1, 1, 1, 1]]","[6, 1, 1, 1, 1]",4.0,12,0,0.077,0.074,0.003,"[30, 13, 7]",default,4,False,False,False,False,7,5,1,implicit-mouselab,14,237560,0.0-3.0-11.0,5f4188feb5f457341013737d,5faed821735c4c09a01dbe66,5faed931d6498b0a08a2fb89,default,7
mouselab,False,"[14, 14, 14, 14, 20, 20, 20, 17, 17, 17, 15, 15, 15, 19, 19, 19]","[[6, 6, 4, 7, 5, 6, 7], [5, 3, 2, 5, 4, 6, 7], [4, 6, 5, 3, 5, 3, 4], [3, 2, 5, 6, 3, 3, 1], [1, 9, 5, 8, 4, 3, 5]]","[[3, 3, 3, 3, 3, 3, 3], [3, 3, 3, 3, 3, 3, 3], [0, 0, 3, 0, 3, 0, 0], [3, 3, 3, 3, 3, 3, 3], [3, 3, 3, 3, 3, 3, 3]]","[2, 1, 1, 2, 4]",1.2,13,1,0.061,0.046,0.015,"[14, 20, 17, 15, 19]",default,3,False,False,False,False,7,5,3,implicit-mouselab,15,255289,0.0-3.0-12.0,5f4188feb5f457341013737d,5faed821735c4c09a01dbe66,5faed931d6498b0a08a2fb89,default,7
mouselab,False,"[2, 3, 8, 9]","[[4, 5], [5, 6], [6, 4], [7, 3], [4, 6]]","[[1, 1], [0, 0], [1, 1], [1, 1], [0, 0]]","[1, 6, 1, 1, 1]",4.0,14,1,0.054,0.05,0.004,"[2, 3, 8, 9]",default,0,False,False,False,False,2,5,1,implicit-mouselab,16,266494,0.0-3.0-13.0,5f4188feb5f457341013737d,5faed821735c4c09a01dbe66,5faed931d6498b0a08a2fb89,default,7
mouselab,False,"[4, 4, 4, 5, 5, 5, 9, 8, 9, 9, 8, 8, 8]","[[3, 5], [6, 4], [6, 7], [6, 5], [5, 7]]","[[3, 3], [3, 3], [0, 0], [3, 3], [0, 0]]","[1, 1, 3, 4, 1]",1.6,15,1,0.057,0.045,0.012,"[4, 5, 9, 8]",control,-1,False,False,False,False,2,5,3,implicit-mouselab,17,280017,0.0-3.0-14.0,5f4188feb5f457341013737d,5faed821735c4c09a01dbe66,5faed931d6498b0a08a2fb89,default,7
mouselab,False,"[1, 1, 0, 0]","[[5, 7], [2, 5]]","[[0, 0], [2, 2]]","[6, 4]",1.0,16,1,0.062,0.057999999999999996,0.004,"[1, 0]",control,-1,False,False,False,False,2,2,2,implicit-mouselab,18,285377,0.0-3.0-15.0,5f4188feb5f457341013737d,5faed821735c4c09a01dbe66,5faed931d6498b0a08a2fb89,default,7
mouselab,False,"[10, 10, 10, 6, 6, 6, 0, 0, 0]","[[2, 3, 7, 7, 4, 5, 7], [5, 3, 6, 6, 4, 2, 5]]","[[0, 3, 3, 3, 3, 3, 0], [3, 3, 3, 0, 3, 3, 3]]","[9, 1]",16.0,17,6,0.068,0.059000000000000004,0.009,"[10, 6, 0]",default,0,False,False,False,False,7,2,3,implicit-mouselab,19,296708,0.0-3.0-16.0,5f4188feb5f457341013737d,5faed821735c4c09a01dbe66,5faed931d6498b0a08a2fb89,default,7
mouselab,False,"[7, 7, 13, 13, 10, 10, 9, 9, 8, 8, 12, 12, 11, 11]","[[6, 5, 4, 5, 4, 7, 8], [5, 4, 5, 4, 5, 5, 8]]","[[2, 2, 2, 2, 2, 2, 2], [0, 0, 0, 0, 0, 0, 0]]","[1, 9]",16.0,18,6,0.08,0.066,0.014,"[7, 13, 10, 9, 8, 12, 11]",control,-1,False,False,False,False,7,2,2,implicit-mouselab,20,306716,0.0-3.0-17.0,5f4188feb5f457341013737d,5faed821735c4c09a01dbe66,5faed931d6498b0a08a2fb89,default,7
mouselab,False,[],"[[4, 7], [4, 6], [5, 4], [4, 3], [5, 3]]","[[4, 4], [4, 4], [4, 4], [4, 4], [4, 4]]","[1, 1, 3, 1, 4]",1.6,19,0,0.047,0.047,0.0,[],default,0,True,False,True,False,2,5,4,implicit-mouselab,21,311248,0.0-3.0-18.0,5f4188feb5f457341013737d,5faed821735c4c09a01dbe66,5faed931d6498b0a08a2fb89,default,7
mouselab,False,"[9, 8, 4, 5]","[[4, 3], [4, 4], [7, 5], [5, 7], [3, 3]]","[[1, 1], [1, 1], [0, 0], [1, 1], [0, 0]]","[1, 3, 1, 3, 2]",0.8,20,0,0.044,0.039999999999999994,0.004,"[9, 8, 4, 5]",control,-1,False,False,False,False,2,5,1,implicit-mouselab,22,318513,0.0-3.0-19.0,5f4188feb5f457341013737d,5faed821735c4c09a01dbe66,5faed931d6498b0a08a2fb89,default,7
mouselab,False,"[7, 7, 7, 7, 13, 13, 13, 13, 10, 10, 10, 10]","[[1, 5, 6, 4, 7, 7, 5], [8, 6, 4, 6, 4, 8, 3]]","[[4, 4, 4, 4, 4, 4, 4], [0, 4, 4, 0, 4, 4, 0]]","[4, 6]",1.0,21,0,0.052,0.039999999999999994,0.012,"[7, 13, 10]",control,-1,False,False,False,False,7,2,4,implicit-mouselab,23,327935,0.0-3.0-20.0,5f4188feb5f457341013737d,5faed821735c4c09a01dbe66,5faed931d6498b0a08a2fb89,default,7
mouselab,False,"[0, 0, 1, 1]","[[7, 6], [6, 1], [6, 7], [2, 5], [3, 5]]","[[0, 0], [2, 2], [2, 2], [2, 2], [2, 2]]","[1, 1, 1, 2, 5]",2.4,22,0,0.038,0.034,0.004,"[0, 1]",control,-1,False,False,False,False,2,5,2,implicit-mouselab,24,332497,0.0-3.0-21.0,5f4188feb5f457341013737d,5faed821735c4c09a01dbe66,5faed931d6498b0a08a2fb89,default,7
mouselab,False,"[0, 0, 6, 6, 3, 3]","[[4, 7, 5, 3, 4, 4, 6], [8, 5, 6, 7, 6, 8, 3], [6, 3, 2, 8, 6, 3, 7], [5, 4, 7, 5, 6, 5, 3], [6, 5, 4, 5, 9, 6, 6]]","[[0, 2, 2, 0, 2, 2, 0], [2, 2, 2, 2, 2, 2, 2], [2, 2, 2, 2, 2, 2, 2], [2, 2, 2, 2, 2, 2, 2], [2, 2, 2, 2, 2, 2, 2]]","[1, 2, 2, 4, 1]",1.2,23,6,0.044,0.038,0.006,"[0, 6, 3]",control,-1,False,False,False,False,7,5,2,implicit-mouselab,25,338562,0.0-3.0-22.0,5f4188feb5f457341013737d,5faed821735c4c09a01dbe66,5faed931d6498b0a08a2fb89,default,7
mouselab,False,[],"[[5, 4], [5, 4]]","[[2, 2], [2, 2]]","[9, 1]",16.0,24,0,0.05,0.05,0.0,[],default,0,True,False,True,False,2,2,2,implicit-mouselab,26,341447,0.0-3.0-23.0,5f4188feb5f457341013737d,5faed821735c4c09a01dbe66,5faed931d6498b0a08a2fb89,default,7
mouselab,True,"[2, 2, 18, 18, 23, 23, 19, 19, 16, 16, 15, 15, 14, 14, 17, 17, 20, 20]","[[2, 2, 5, 6, 1, 8, 6], [4, 7, 5, 3, 6, 5, 7], [4, 6, 5, 1, 5, 4, 4], [4, 5, 4, 7, 5, 4, 6], [5, 6, 4, 4, 8, 5, 4]]","[[2, 2, 0, 2, 2, 2, 2], [2, 2, 2, 2, 2, 2, 2], [0, 0, 0, 0, 0, 0, 0], [2, 2, 0, 2, 2, 2, 2], [2, 2, 2, 2, 2, 2, 2]]","[3, 1, 3, 1, 2]",0.8,1,1,0.048,0.030000000000000002,0.018,"[2, 18, 23, 19, 16, 15, 14, 17, 20]",control,-1,False,False,False,False,7,5,2,implicit-mouselab,4,138808,0.0-3.0-1.0,5f03a0425d417d2eb28a639d,5faed821735c4c09a01dbe66,5faed9f90cf89608d722e575,default,8
mouselab,True,[],"[[2, 3], [8, 9]]","[[3, 3], [3, 3]]","[8, 2]",9.0,2,1,0.042,0.042,0.0,[],control,-1,False,False,False,False,2,2,3,implicit-mouselab,5,145601,0.0-3.0-2.0,5f03a0425d417d2eb28a639d,5faed821735c4c09a01dbe66,5faed9f90cf89608d722e575,default,8
mouselab,False,[],"[[7, 4, 5, 2, 5, 4, 7], [7, 6, 3, 4, 7, 5, 5]]","[[3, 3, 3, 3, 3, 3, 3], [3, 3, 3, 3, 3, 3, 3]]","[3, 7]",4.0,5,3,0.034,0.034,0.0,[],control,-1,False,False,False,False,7,2,3,implicit-mouselab,7,150393,0.0-3.0-4.0,5f03a0425d417d2eb28a639d,5faed821735c4c09a01dbe66,5faed9f90cf89608d722e575,default,8
mouselab,False,[],"[[6, 5, 5, 3, 8, 4, 5], [7, 3, 6, 3, 2, 5, 9], [4, 5, 5, 7, 6, 7, 6], [7, 6, 7, 7, 2, 5, 6], [8, 5, 3, 6, 3, 6, 6]]","[[2, 2, 2, 2, 2, 2, 2], [2, 2, 2, 2, 2, 2, 2], [2, 2, 2, 2, 2, 2, 2], [2, 2, 2, 2, 2, 2, 2], [2, 2, 2, 2, 2, 2, 2]]","[1, 3, 2, 2, 2]",0.4,6,0,0.065,0.065,0.0,[],default,0,True,False,True,False,7,5,2,implicit-mouselab,8,157785,0.0-3.0-5.0,5f03a0425d417d2eb28a639d,5faed821735c4c09a01dbe66,5faed9f90cf89608d722e575,default,8
mouselab,False,[],"[[3, 7, 4, 5, 6, 5, 2], [5, 7, 5, 3, 3, 9, 8]]","[[1, 1, 1, 1, 1, 1, 1], [1, 1, 1, 1, 1, 1, 1]]","[6, 4]",1.0,7,2,0.044,0.044,0.0,[],control,-1,False,False,False,False,7,2,1,implicit-mouselab,9,159225,0.0-3.0-6.0,5f03a0425d417d2eb28a639d,5faed821735c4c09a01dbe66,5faed9f90cf89608d722e575,default,8
mouselab,False,[],"[[5, 6, 6, 4, 6, 8, 6], [5, 5, 5, 5, 4, 9, 7]]","[[3, 3, 3, 3, 3, 3, 3], [3, 3, 3, 3, 3, 3, 3]]","[3, 7]",4.0,8,5,0.087,0.087,0.0,[],control,-1,False,False,False,False,7,2,3,implicit-mouselab,10,160961,0.0-3.0-7.0,5f03a0425d417d2eb28a639d,5faed821735c4c09a01dbe66,5faed9f90cf89608d722e575,default,8
mouselab,False,[],"[[2, 4], [4, 4]]","[[2, 2], [2, 2]]","[6, 4]",1.0,9,0,0.028,0.028,0.0,[],default,0,True,False,True,False,2,2,2,implicit-mouselab,11,162618,0.0-3.0-8.0,5f03a0425d417d2eb28a639d,5faed821735c4c09a01dbe66,5faed9f90cf89608d722e575,default,8
mouselab,False,[],"[[6, 5], [4, 8]]","[[1, 1], [1, 1]]","[4, 6]",1.0,10,0,0.048,0.048,0.0,[],control,-1,False,False,False,False,2,2,1,implicit-mouselab,12,163890,0.0-3.0-9.0,5f03a0425d417d2eb28a639d,5faed821735c4c09a01dbe66,5faed9f90cf89608d722e575,default,8
mouselab,False,[],"[[5, 2], [9, 4], [2, 8], [6, 4], [6, 6]]","[[4, 4], [4, 4], [4, 4], [4, 4], [4, 4]]","[1, 1, 1, 6, 1]",4.0,11,1,0.044,0.044,0.0,[],control,-1,False,False,False,False,2,5,4,implicit-mouselab,13,165306,0.0-3.0-10.0,5f03a0425d417d2eb28a639d,5faed821735c4c09a01dbe66,5faed9f90cf89608d722e575,default,8
mouselab,False,[],"[[9, 4, 7, 3, 9, 6, 4], [5, 7, 4, 4, 2, 5, 6], [5, 5, 5, 7, 2, 5, 4], [5, 3, 3, 5, 3, 4, 5], [7, 6, 5, 6, 3, 3, 7]]","[[4, 4, 4, 4, 4, 4, 4], [4, 4, 4, 4, 4, 4, 4], [4, 4, 4, 4, 4, 4, 4], [4, 4, 4, 4, 4, 4, 4], [4, 4, 4, 4, 4, 4, 4]]","[1, 4, 2, 1, 2]",1.2,12,2,0.046,0.046,0.0,[],control,-1,False,False,False,False,7,5,4,implicit-mouselab,14,166786,0.0-3.0-11.0,5f03a0425d417d2eb28a639d,5faed821735c4c09a01dbe66,5faed9f90cf89608d722e575,default,8
mouselab,False,[],"[[6, 5], [6, 6], [4, 6], [4, 4], [3, 2]]","[[4, 4], [4, 4], [4, 4], [4, 4], [4, 4]]","[2, 1, 4, 2, 1]",1.2,13,0,0.045,0.045,0.0,[],default,0,True,False,True,False,2,5,4,implicit-mouselab,15,168499,0.0-3.0-12.0,5f03a0425d417d2eb28a639d,5faed821735c4c09a01dbe66,5faed9f90cf89608d722e575,default,8
mouselab,False,[],"[[5, 6], [8, 4], [5, 4], [1, 4], [5, 8]]","[[2, 2], [2, 2], [2, 2], [2, 2], [2, 2]]","[1, 4, 1, 3, 1]",1.6,14,0,0.05,0.05,0.0,[],default,0,True,False,True,False,2,5,2,implicit-mouselab,16,170042,0.0-3.0-13.0,5f03a0425d417d2eb28a639d,5faed821735c4c09a01dbe66,5faed9f90cf89608d722e575,default,8
mouselab,False,[],"[[7, 5], [4, 5]]","[[3, 3], [3, 3]]","[6, 4]",1.0,15,0,0.058,0.058,0.0,[],control,-1,False,False,False,False,2,2,3,implicit-mouselab,17,171787,0.0-3.0-14.0,5f03a0425d417d2eb28a639d,5faed821735c4c09a01dbe66,5faed9f90cf89608d722e575,default,8
mouselab,False,[],"[[9, 8], [0, 2]]","[[3, 3], [3, 3]]","[7, 3]",4.0,16,0,0.063,0.063,0.0,[],default,0,True,False,True,False,2,2,3,implicit-mouselab,18,173707,0.0-3.0-15.0,5f03a0425d417d2eb28a639d,5faed821735c4c09a01dbe66,5faed9f90cf89608d722e575,default,8
mouselab,False,[],"[[5, 4], [8, 4], [5, 5], [4, 7], [8, 7]]","[[1, 1], [1, 1], [1, 1], [1, 1], [1, 1]]","[1, 3, 2, 2, 2]",0.4,17,1,0.054,0.054,0.0,[],control,-1,False,False,False,False,2,5,1,implicit-mouselab,19,175267,0.0-3.0-16.0,5f03a0425d417d2eb28a639d,5faed821735c4c09a01dbe66,5faed9f90cf89608d722e575,default,8
mouselab,False,[],"[[1, 4, 5, 8, 6, 6, 6], [3, 5, 7, 4, 5, 6, 5], [6, 4, 6, 6, 6, 5, 5], [7, 4, 2, 5, 7, 4, 4], [6, 5, 9, 6, 4, 4, 6]]","[[2, 2, 2, 2, 2, 2, 2], [2, 2, 2, 2, 2, 2, 2], [2, 2, 2, 2, 2, 2, 2], [2, 2, 2, 2, 2, 2, 2], [2, 2, 2, 2, 2, 2, 2]]","[1, 3, 1, 2, 3]",0.8,18,3,0.054,0.054,0.0,[],default,3,True,False,True,False,7,5,2,implicit-mouselab,20,177107,0.0-3.0-17.0,5f03a0425d417d2eb28a639d,5faed821735c4c09a01dbe66,5faed9f90cf89608d722e575,default,8
mouselab,False,[],"[[5, 5], [6, 4]]","[[4, 4], [4, 4]]","[8, 2]",9.0,19,1,0.048,0.048,0.0,[],control,-1,False,False,False,False,2,2,4,implicit-mouselab,21,178300,0.0-3.0-18.0,5f03a0425d417d2eb28a639d,5faed821735c4c09a01dbe66,5faed9f90cf89608d722e575,default,8
mouselab,False,[],"[[6, 2, 5, 3, 6, 4, 8], [3, 5, 6, 4, 5, 5, 5], [5, 6, 7, 5, 3, 6, 5], [4, 3, 5, 4, 6, 6, 3], [4, 8, 6, 5, 4, 9, 6]]","[[4, 4, 4, 4, 4, 4, 4], [4, 4, 4, 4, 4, 4, 4], [4, 4, 4, 4, 4, 4, 4], [4, 4, 4, 4, 4, 4, 4], [4, 4, 4, 4, 4, 4, 4]]","[1, 2, 5, 1, 1]",2.4,20,5,0.059,0.059,0.0,[],default,5,True,False,True,False,7,5,4,implicit-mouselab,22,179899,0.0-3.0-19.0,5f03a0425d417d2eb28a639d,5faed821735c4c09a01dbe66,5faed9f90cf89608d722e575,default,8
mouselab,False,[],"[[4, 3, 4, 5, 8, 6, 3], [9, 2, 4, 4, 6, 3, 4]]","[[1, 1, 1, 1, 1, 1, 1], [1, 1, 1, 1, 1, 1, 1]]","[3, 7]",4.0,21,5,0.039,0.039,0.0,[],control,-1,False,False,False,False,7,2,1,implicit-mouselab,23,181556,0.0-3.0-20.0,5f03a0425d417d2eb28a639d,5faed821735c4c09a01dbe66,5faed9f90cf89608d722e575,default,8
mouselab,False,[],"[[5, 7], [5, 4]]","[[3, 3], [3, 3]]","[9, 1]",16.0,22,0,0.05,0.05,0.0,[],default,0,True,False,True,False,2,2,3,implicit-mouselab,24,183564,0.0-3.0-21.0,5f03a0425d417d2eb28a639d,5faed821735c4c09a01dbe66,5faed9f90cf89608d722e575,default,8
mouselab,False,[],"[[4, 5, 3, 7, 2, 6, 3], [5, 2, 2, 8, 4, 6, 6], [3, 5, 7, 3, 8, 9, 5], [5, 5, 9, 5, 4, 6, 6], [4, 2, 4, 5, 4, 7, 5]]","[[2, 2, 2, 2, 2, 2, 2], [2, 2, 2, 2, 2, 2, 2], [2, 2, 2, 2, 2, 2, 2], [2, 2, 2, 2, 2, 2, 2], [2, 2, 2, 2, 2, 2, 2]]","[2, 2, 1, 4, 1]",1.2,23,2,0.057,0.057,0.0,[],default,2,True,False,True,False,7,5,2,implicit-mouselab,25,185740,0.0-3.0-22.0,5f03a0425d417d2eb28a639d,5faed821735c4c09a01dbe66,5faed9f90cf89608d722e575,default,8
mouselab,False,[],"[[5, 4, 5, 6, 6, 5, 6], [7, 3, 7, 3, 4, 8, 5], [9, 4, 5, 4, 6, 4, 5], [5, 4, 5, 6, 4, 3, 4], [4, 6, 5, 2, 3, 5, 5]]","[[1, 1, 1, 1, 1, 1, 1], [1, 1, 1, 1, 1, 1, 1], [1, 1, 1, 1, 1, 1, 1], [1, 1, 1, 1, 1, 1, 1], [1, 1, 1, 1, 1, 1, 1]]","[1, 4, 3, 1, 1]",1.6,24,6,0.05,0.05,0.0,[],default,6,True,False,True,False,7,5,1,implicit-mouselab,26,188612,0.0-3.0-23.0,5f03a0425d417d2eb28a639d,5faed821735c4c09a01dbe66,5faed9f90cf89608d722e575,default,8
mouselab,True,"[9, 9, 9]","[[5, 4], [6, 4], [4, 8], [6, 5], [4, 8]]","[[3, 3], [3, 3], [3, 3], [3, 3], [3, 0]]","[2, 2, 1, 1, 4]",1.2,1,1,0.061,0.057999999999999996,0.003,[9],control,-1,False,False,False,False,2,5,3,implicit-mouselab,4,283257,0.0-3.0-1.0,5f9b8140e801533bec8427d0,5faed821735c4c09a01dbe66,5faed8d382e37e091dad26a9,default,10
mouselab,True,"[5, 5, 2, 2]","[[8, 1, 9, 4, 5, 4, 7], [5, 4, 6, 7, 5, 7, 5]]","[[2, 2, 0, 2, 2, 0, 2], [2, 2, 2, 2, 2, 2, 2]]","[9, 1]",16.0,2,2,0.087,0.08299999999999999,0.004,"[5, 2]",control,-1,False,False,False,False,7,2,2,implicit-mouselab,5,297142,0.0-3.0-2.0,5f9b8140e801533bec8427d0,5faed821735c4c09a01dbe66,5faed8d382e37e091dad26a9,default,10
mouselab,False,"[2, 2, 2, 2, 5, 5, 5, 5]","[[7, 5, 2, 3, 9, 7, 3], [4, 2, 3, 6, 6, 6, 4]]","[[4, 4, 0, 4, 4, 0, 4], [4, 4, 4, 4, 4, 4, 4]]","[7, 3]",4.0,5,5,0.067,0.059000000000000004,0.008,"[2, 5]",control,-1,False,False,False,False,7,2,4,implicit-mouselab,7,318145,0.0-3.0-4.0,5f9b8140e801533bec8427d0,5faed821735c4c09a01dbe66,5faed8d382e37e091dad26a9,default,10
mouselab,False,"[3, 3, 3, 4, 4]","[[5, 7], [7, 3], [6, 7], [4, 4], [7, 5]]","[[2, 2], [2, 0], [0, 2], [2, 2], [2, 2]]","[1, 3, 3, 2, 1]",0.8,6,0,0.059,0.05499999999999999,0.004,"[3, 4]",control,-1,False,False,False,False,2,5,2,implicit-mouselab,8,330184,0.0-3.0-5.0,5f9b8140e801533bec8427d0,5faed821735c4c09a01dbe66,5faed8d382e37e091dad26a9,default,10
mouselab,False,"[3, 3, 3]","[[6, 4], [6, 5]]","[[3, 3], [3, 0]]","[5, 5]",0.0,7,1,0.045,0.041999999999999996,0.003,[3],control,-1,False,False,False,False,2,2,3,implicit-mouselab,9,337278,0.0-3.0-6.0,5f9b8140e801533bec8427d0,5faed821735c4c09a01dbe66,5faed8d382e37e091dad26a9,default,10
mouselab,False,"[22, 22, 22, 22, 24, 24, 24, 24, 26, 26, 26, 26]","[[7, 5, 4, 4, 5, 10, 5], [6, 5, 6, 0, 4, 3, 3], [6, 8, 4, 5, 6, 5, 6], [4, 4, 7, 3, 3, 6, 6], [6, 5, 4, 7, 3, 6, 3]]","[[4, 4, 4, 4, 4, 4, 4], [4, 4, 4, 4, 4, 4, 4], [4, 4, 4, 4, 4, 4, 4], [4, 0, 4, 0, 4, 0, 4], [4, 4, 4, 4, 4, 4, 4]]","[1, 1, 2, 5, 1]",2.4,8,5,0.059,0.047,0.012,"[22, 24, 26]",default,3,False,False,False,False,7,5,4,implicit-mouselab,10,363096,0.0-3.0-7.0,5f9b8140e801533bec8427d0,5faed821735c4c09a01dbe66,5faed8d382e37e091dad26a9,default,10
mouselab,False,"[7, 10, 12, 8, 11]","[[5, 6, 7, 5, 5, 4, 2], [2, 4, 2, 3, 5, 1, 5]]","[[1, 1, 1, 1, 1, 1, 1], [0, 0, 1, 0, 0, 0, 1]]","[4, 6]",1.0,9,4,0.05,0.045000000000000005,0.005,"[7, 10, 12, 8, 11]",default,0,False,False,False,False,7,2,1,implicit-mouselab,11,377525,0.0-3.0-8.0,5f9b8140e801533bec8427d0,5faed821735c4c09a01dbe66,5faed8d382e37e091dad26a9,default,10
mouselab,False,"[16, 16, 16, 16]","[[7, 3, 5, 8, 2, 6, 7], [3, 7, 5, 4, 5, 6, 6], [6, 7, 6, 5, 3, 2, 5], [4, 8, 4, 5, 4, 2, 4], [8, 7, 3, 6, 4, 3, 6]]","[[4, 4, 4, 4, 4, 4, 4], [4, 4, 4, 4, 4, 4, 4], [4, 4, 0, 4, 4, 4, 4], [4, 4, 4, 4, 4, 4, 4], [4, 4, 4, 4, 4, 4, 4]]","[2, 2, 2, 2, 2]",0.0,10,2,0.046,0.041999999999999996,0.004,[16],control,-1,False,False,False,False,7,5,4,implicit-mouselab,12,389336,0.0-3.0-9.0,5f9b8140e801533bec8427d0,5faed821735c4c09a01dbe66,5faed8d382e37e091dad26a9,default,10
mouselab,False,"[11, 11, 11]","[[6, 3, 4, 4, 6, 4, 4], [7, 2, 5, 6, 7, 7, 7]]","[[1, 1, 1, 1, 1, 1, 1], [1, 1, 1, 1, 0, 1, 1]]","[3, 7]",4.0,11,4,0.067,0.066,0.001,[11],control,-1,False,False,False,False,7,2,1,implicit-mouselab,13,396702,0.0-3.0-10.0,5f9b8140e801533bec8427d0,5faed821735c4c09a01dbe66,5faed8d382e37e091dad26a9,default,10
mouselab,False,"[3, 3, 3, 1, 1, 1]","[[5, 7, 6, 5, 7, 4, 6], [4, 6, 4, 6, 5, 6, 7]]","[[3, 0, 3, 0, 3, 3, 3], [3, 3, 3, 3, 3, 3, 3]]","[7, 3]",4.0,12,1,0.067,0.061000000000000006,0.006,"[3, 1]",default,5,False,False,False,False,7,2,3,implicit-mouselab,14,409094,0.0-3.0-11.0,5f9b8140e801533bec8427d0,5faed821735c4c09a01dbe66,5faed8d382e37e091dad26a9,default,10
mouselab,False,"[0, 0, 0, 1, 1]","[[6, 5], [4, 6]]","[[0, 0], [2, 2]]","[9, 1]",16.0,13,0,0.058,0.054000000000000006,0.004,"[0, 1]",control,-1,False,False,False,False,2,2,2,implicit-mouselab,15,415550,0.0-3.0-12.0,5f9b8140e801533bec8427d0,5faed821735c4c09a01dbe66,5faed8d382e37e091dad26a9,default,10
mouselab,False,"[3, 3, 1, 2, 4, 5]","[[6, 5, 6, 5, 5, 6, 6], [1, 6, 4, 6, 8, 5, 3]]","[[1, 0, 0, 0, 0, 0, 1], [1, 1, 1, 1, 1, 1, 1]]","[9, 1]",16.0,14,2,0.058,0.053000000000000005,0.005,"[3, 1, 2, 4, 5]",default,5,False,False,False,False,7,2,1,implicit-mouselab,16,425822,0.0-3.0-13.0,5f9b8140e801533bec8427d0,5faed821735c4c09a01dbe66,5faed8d382e37e091dad26a9,default,10
mouselab,False,"[22, 22, 22, 22]","[[7, 5, 6, 5, 6, 7, 6], [6, 6, 6, 4, 7, 4, 4], [5, 8, 3, 5, 6, 2, 5], [3, 6, 7, 4, 6, 4, 0], [4, 7, 3, 6, 10, 4, 6]]","[[4, 4, 4, 4, 4, 4, 4], [4, 4, 4, 4, 4, 4, 4], [4, 4, 4, 4, 4, 4, 4], [4, 0, 4, 4, 4, 4, 4], [4, 4, 4, 4, 4, 4, 4]]","[1, 2, 1, 5, 1]",2.4,15,1,0.062,0.057999999999999996,0.004,[22],default,5,False,False,False,False,7,5,4,implicit-mouselab,17,434723,0.0-3.0-14.0,5f9b8140e801533bec8427d0,5faed821735c4c09a01dbe66,5faed8d382e37e091dad26a9,default,10
mouselab,False,"[4, 4, 4, 5]","[[3, 5], [6, 4], [3, 5], [5, 3], [7, 7]]","[[1, 1], [1, 1], [0, 0], [1, 1], [1, 1]]","[1, 1, 5, 2, 1]",2.4,16,1,0.047,0.045,0.002,"[4, 5]",control,-1,False,False,False,False,2,5,1,implicit-mouselab,18,440231,0.0-3.0-15.0,5f9b8140e801533bec8427d0,5faed821735c4c09a01dbe66,5faed8d382e37e091dad26a9,default,10
mouselab,False,"[7, 7, 6, 6]","[[5, 8], [7, 5], [6, 7], [6, 4], [5, 4]]","[[2, 2], [2, 2], [2, 2], [0, 0], [2, 2]]","[1, 3, 1, 4, 1]",1.6,17,0,0.061,0.056999999999999995,0.004,"[7, 6]",default,1,False,False,False,False,2,5,2,implicit-mouselab,19,447384,0.0-3.0-16.0,5f9b8140e801533bec8427d0,5faed821735c4c09a01dbe66,5faed8d382e37e091dad26a9,default,10
mouselab,False,"[0, 0, 3, 3]","[[4, 2], [1, 5]]","[[0, 2], [2, 0]]","[5, 5]",0.0,18,1,0.035,0.031000000000000003,0.004,"[0, 3]",default,0,False,False,False,False,2,2,2,implicit-mouselab,20,454299,0.0-3.0-17.0,5f9b8140e801533bec8427d0,5faed821735c4c09a01dbe66,5faed8d382e37e091dad26a9,default,10
mouselab,False,"[2, 2, 2, 2, 5, 5, 5, 5, 3, 3, 3, 3]","[[8, 7, 3, 3, 5, 2, 2], [6, 3, 4, 7, 4, 3, 5]]","[[4, 4, 0, 0, 4, 0, 4], [4, 4, 4, 4, 4, 4, 4]]","[6, 4]",1.0,19,1,0.054,0.041999999999999996,0.012,"[2, 5, 3]",default,5,False,False,False,False,7,2,4,implicit-mouselab,21,464697,0.0-3.0-18.0,5f9b8140e801533bec8427d0,5faed821735c4c09a01dbe66,5faed8d382e37e091dad26a9,default,10
mouselab,False,"[6, 6, 6, 7, 7, 7]","[[6, 5], [7, 4], [4, 6], [9, 8], [8, 9]]","[[3, 3], [3, 3], [3, 3], [0, 0], [3, 3]]","[1, 2, 2, 3, 2]",0.4,20,0,0.071,0.06499999999999999,0.006,"[6, 7]",control,-1,False,False,False,False,2,5,3,implicit-mouselab,22,471769,0.0-3.0-19.0,5f9b8140e801533bec8427d0,5faed821735c4c09a01dbe66,5faed8d382e37e091dad26a9,default,10
mouselab,False,"[1, 1, 1, 1]","[[4, 7], [5, 4], [4, 6], [4, 5], [6, 7]]","[[1, 0], [1, 1], [1, 1], [1, 1], [1, 1]]","[3, 3, 1, 1, 2]",0.8,21,1,0.058,0.057,0.001,[1],control,-1,False,False,False,False,2,5,1,implicit-mouselab,23,478702,0.0-3.0-20.0,5f9b8140e801533bec8427d0,5faed821735c4c09a01dbe66,5faed8d382e37e091dad26a9,default,10
mouselab,False,"[8, 8, 8, 9, 9]","[[7, 5], [6, 2], [7, 3], [5, 4], [5, 3]]","[[2, 2], [2, 2], [2, 2], [2, 2], [0, 0]]","[2, 1, 2, 2, 3]",0.4,22,0,0.059,0.05499999999999999,0.004,"[8, 9]",control,-1,False,False,False,False,2,5,2,implicit-mouselab,24,485033,0.0-3.0-21.0,5f9b8140e801533bec8427d0,5faed821735c4c09a01dbe66,5faed8d382e37e091dad26a9,default,10
mouselab,False,"[5, 5, 5, 4, 4, 4]","[[3, 4], [9, 5], [2, 3], [5, 7], [5, 7]]","[[3, 3], [3, 3], [0, 0], [3, 3], [3, 3]]","[3, 1, 4, 1, 1]",1.6,23,1,0.043,0.037,0.006,"[5, 4]",default,0,False,False,False,False,2,5,3,implicit-mouselab,25,494617,0.0-3.0-22.0,5f9b8140e801533bec8427d0,5faed821735c4c09a01dbe66,5faed8d382e37e091dad26a9,default,10
mouselab,False,"[3, 3, 3]","[[4, 5, 5, 8, 7, 4, 7], [6, 3, 6, 2, 0, 3, 4]]","[[3, 3, 3, 0, 3, 3, 3], [3, 3, 3, 3, 3, 3, 3]]","[9, 1]",16.0,24,3,0.074,0.071,0.003,[3],default,3,False,False,True,False,7,2,3,implicit-mouselab,26,499167,0.0-3.0-23.0,5f9b8140e801533bec8427d0,5faed821735c4c09a01dbe66,5faed8d382e37e091dad26a9,default,10
mouselab,True,[0],"[[4, 5], [5, 5], [6, 5], [6, 8], [5, 7]]","[[2, 3], [3, 3], [3, 3], [3, 3], [3, 3]]","[1, 3, 2, 3, 1]",0.8,1,1,0.061,0.06,0.001,[],control,-1,False,False,False,False,2,5,3,implicit-mouselab,4,237352,0.0-3.0-1.0,5f2d49c9013c1f07acdfb8c7,5faed821735c4c09a01dbe66,5faed93be8bca10a185611e9,default,11
mouselab,True,[],"[[7, 8, 5, 8, 5, 4, 7], [3, 7, 7, 7, 5, 6, 6]]","[[2, 2, 2, 2, 2, 2, 2], [2, 2, 2, 2, 2, 2, 2]]","[4, 6]",1.0,2,0,0.046,0.046,0.0,[],control,-1,False,False,False,False,7,2,2,implicit-mouselab,5,253372,0.0-3.0-2.0,5f2d49c9013c1f07acdfb8c7,5faed821735c4c09a01dbe66,5faed93be8bca10a185611e9,default,11
mouselab,False,[],"[[8, 8], [5, 4]]","[[1, 1], [1, 1]]","[3, 7]",4.0,5,1,0.052,0.052,0.0,[],default,1,True,False,True,False,2,2,1,implicit-mouselab,7,275074,0.0-3.0-4.0,5f2d49c9013c1f07acdfb8c7,5faed821735c4c09a01dbe66,5faed93be8bca10a185611e9,default,11
mouselab,False,[],"[[0, 4, 2, 4, 5, 4, 5], [3, 4, 5, 3, 8, 6, 6]]","[[1, 1, 1, 1, 1, 1, 1], [1, 1, 1, 1, 1, 1, 1]]","[8, 2]",9.0,6,2,0.026,0.026,0.0,[],default,2,True,False,True,False,7,2,1,implicit-mouselab,8,281289,0.0-3.0-5.0,5f2d49c9013c1f07acdfb8c7,5faed821735c4c09a01dbe66,5faed93be8bca10a185611e9,default,11
mouselab,False,[],"[[6, 6, 3, 6, 6, 9, 2], [4, 5, 5, 3, 5, 5, 3], [3, 6, 6, 8, 4, 5, 3], [7, 5, 5, 2, 4, 5, 2], [3, 5, 4, 8, 4, 7, 3]]","[[3, 3, 3, 3, 3, 3, 3], [3, 3, 3, 3, 3, 3, 3], [3, 3, 3, 3, 3, 3, 3], [3, 3, 3, 3, 3, 3, 3], [3, 3, 3, 3, 3, 3, 3]]","[1, 1, 4, 1, 3]",1.6,7,2,0.049,0.049,0.0,[],control,-1,False,False,False,False,7,5,3,implicit-mouselab,9,287960,0.0-3.0-6.0,5f2d49c9013c1f07acdfb8c7,5faed821735c4c09a01dbe66,5faed93be8bca10a185611e9,default,11
mouselab,False,[],"[[3, 6, 5, 6, 6, 5, 5], [1, 6, 6, 7, 4, 6, 1], [5, 6, 3, 4, 5, 8, 7], [7, 3, 6, 2, 6, 4, 6], [5, 6, 5, 4, 3, 5, 5]]","[[3, 3, 3, 3, 3, 3, 3], [3, 3, 3, 3, 3, 3, 3], [3, 3, 3, 3, 3, 3, 3], [3, 3, 3, 3, 3, 3, 3], [3, 3, 3, 3, 3, 3, 3]]","[3, 4, 1, 1, 1]",1.6,8,4,0.048,0.048,0.0,[],control,-1,False,False,False,False,7,5,3,implicit-mouselab,10,294002,0.0-3.0-7.0,5f2d49c9013c1f07acdfb8c7,5faed821735c4c09a01dbe66,5faed93be8bca10a185611e9,default,11
mouselab,False,[],"[[4, 5, 7, 4, 7, 3, 8], [3, 9, 5, 6, 9, 7, 5], [6, 3, 7, 2, 4, 4, 2], [4, 4, 4, 4, 6, 5, 8], [6, 4, 3, 4, 4, 5, 1]]","[[3, 3, 3, 3, 3, 3, 3], [3, 3, 3, 3, 3, 3, 3], [3, 3, 3, 3, 3, 3, 3], [3, 3, 3, 3, 3, 3, 3], [3, 3, 3, 3, 3, 3, 3]]","[3, 1, 1, 4, 1]",1.6,9,0,0.043,0.043,0.0,[],control,-1,False,False,False,False,7,5,3,implicit-mouselab,11,298888,0.0-3.0-8.0,5f2d49c9013c1f07acdfb8c7,5faed821735c4c09a01dbe66,5faed93be8bca10a185611e9,default,11
mouselab,False,[],"[[6, 5, 5, 6, 3, 8, 4], [8, 5, 6, 3, 4, 6, 5], [5, 4, 9, 2, 3, 8, 4], [5, 4, 5, 4, 7, 6, 5], [4, 6, 5, 4, 5, 5, 7]]","[[1, 1, 1, 1, 1, 1, 1], [1, 1, 1, 1, 1, 1, 1], [1, 1, 1, 1, 1, 1, 1], [1, 1, 1, 1, 1, 1, 1], [1, 1, 1, 1, 1, 1, 1]]","[1, 1, 2, 4, 2]",1.2,10,2,0.059,0.059,0.0,[],control,-1,False,False,False,False,7,5,1,implicit-mouselab,12,303217,0.0-3.0-9.0,5f2d49c9013c1f07acdfb8c7,5faed821735c4c09a01dbe66,5faed93be8bca10a185611e9,default,11
mouselab,False,[],"[[7, 7], [5, 6]]","[[4, 4], [4, 4]]","[1, 9]",16.0,11,1,0.061,0.061,0.0,[],default,1,True,False,True,False,2,2,4,implicit-mouselab,13,319518,0.0-3.0-10.0,5f2d49c9013c1f07acdfb8c7,5faed821735c4c09a01dbe66,5faed93be8bca10a185611e9,default,11
mouselab,False,[0],"[[4, 7], [2, 6]]","[[2, 3], [3, 3]]","[9, 1]",16.0,12,1,0.069,0.068,0.001,[],control,-1,False,False,False,False,2,2,3,implicit-mouselab,14,338028,0.0-3.0-11.0,5f2d49c9013c1f07acdfb8c7,5faed821735c4c09a01dbe66,5faed93be8bca10a185611e9,default,11
mouselab,False,[],"[[4, 6], [5, 4], [5, 6], [5, 4], [2, 5]]","[[1, 1], [1, 1], [1, 1], [1, 1], [1, 1]]","[2, 2, 1, 1, 4]",1.2,13,0,0.036,0.036,0.0,[],default,0,True,False,True,False,2,5,1,implicit-mouselab,15,344079,0.0-3.0-12.0,5f2d49c9013c1f07acdfb8c7,5faed821735c4c09a01dbe66,5faed93be8bca10a185611e9,default,11
mouselab,False,[],"[[4, 4, 4, 5, 7, 7, 5], [6, 9, 5, 1, 6, 4, 7], [6, 6, 7, 5, 5, 5, 9], [3, 5, 4, 7, 4, 7, 6], [5, 3, 9, 4, 7, 5, 5]]","[[4, 4, 4, 4, 4, 4, 4], [4, 4, 4, 4, 4, 4, 4], [4, 4, 4, 4, 4, 4, 4], [4, 4, 4, 4, 4, 4, 4], [4, 4, 4, 4, 4, 4, 4]]","[4, 1, 1, 1, 3]",1.6,14,6,0.057,0.057,0.0,[],control,-1,False,False,False,False,7,5,4,implicit-mouselab,16,352633,0.0-3.0-13.0,5f2d49c9013c1f07acdfb8c7,5faed821735c4c09a01dbe66,5faed93be8bca10a185611e9,default,11
mouselab,False,[],"[[4, 4, 4, 6, 4, 6, 5], [4, 2, 5, 3, 3, 4, 6], [6, 5, 9, 9, 5, 4, 4], [7, 6, 6, 8, 5, 3, 4], [5, 3, 5, 6, 6, 7, 8]]","[[4, 4, 4, 4, 4, 4, 4], [4, 4, 4, 4, 4, 4, 4], [4, 4, 4, 4, 4, 4, 4], [4, 4, 4, 4, 4, 4, 4], [4, 4, 4, 4, 4, 4, 4]]","[1, 1, 6, 1, 1]",4.0,15,2,0.074,0.074,0.0,[],control,-1,False,False,False,False,7,5,4,implicit-mouselab,17,360396,0.0-3.0-14.0,5f2d49c9013c1f07acdfb8c7,5faed821735c4c09a01dbe66,5faed93be8bca10a185611e9,default,11
mouselab,False,[],"[[7, 5, 4, 5, 6, 8, 4], [4, 5, 8, 8, 4, 6, 7]]","[[2, 2, 2, 2, 2, 2, 2], [2, 2, 2, 2, 2, 2, 2]]","[6, 4]",1.0,16,4,0.052,0.052,0.0,[],default,6,False,False,False,False,7,2,2,implicit-mouselab,18,374038,0.0-3.0-15.0,5f2d49c9013c1f07acdfb8c7,5faed821735c4c09a01dbe66,5faed93be8bca10a185611e9,default,11
mouselab,False,[],"[[7, 4], [6, 5]]","[[3, 3], [3, 3]]","[9, 1]",16.0,17,0,0.069,0.069,0.0,[],control,-1,False,False,False,False,2,2,3,implicit-mouselab,19,378234,0.0-3.0-16.0,5f2d49c9013c1f07acdfb8c7,5faed821735c4c09a01dbe66,5faed93be8bca10a185611e9,default,11
mouselab,False,[],"[[7, 4], [3, 5]]","[[1, 1], [1, 1]]","[1, 9]",16.0,18,0,0.034,0.034,0.0,[],control,-1,False,False,False,False,2,2,1,implicit-mouselab,20,381751,0.0-3.0-17.0,5f2d49c9013c1f07acdfb8c7,5faed821735c4c09a01dbe66,5faed93be8bca10a185611e9,default,11
mouselab,False,[],"[[6, 4], [5, 8], [4, 5], [4, 6], [5, 3]]","[[2, 2], [2, 2], [2, 2], [2, 2], [2, 2]]","[1, 4, 3, 1, 1]",1.6,19,0,0.047,0.047,0.0,[],default,0,True,False,True,False,2,5,2,implicit-mouselab,21,387285,0.0-3.0-18.0,5f2d49c9013c1f07acdfb8c7,5faed821735c4c09a01dbe66,5faed93be8bca10a185611e9,default,11
mouselab,False,[],"[[3, 2], [7, 3], [2, 4], [4, 6], [5, 6]]","[[4, 4], [4, 4], [4, 4], [4, 4], [4, 4]]","[2, 2, 1, 3, 2]",0.4,20,1,0.044,0.044,0.0,[],default,1,True,False,True,False,2,5,4,implicit-mouselab,22,391896,0.0-3.0-19.0,5f2d49c9013c1f07acdfb8c7,5faed821735c4c09a01dbe66,5faed93be8bca10a185611e9,default,11
mouselab,False,[],"[[8, 7], [1, 4]]","[[2, 2], [2, 2]]","[1, 9]",16.0,21,1,0.043,0.043,0.0,[],default,0,False,False,False,False,2,2,2,implicit-mouselab,23,398514,0.0-3.0-20.0,5f2d49c9013c1f07acdfb8c7,5faed821735c4c09a01dbe66,5faed93be8bca10a185611e9,default,11
mouselab,False,[],"[[3, 6, 2, 4, 3, 4, 5], [6, 4, 3, 4, 2, 4, 5], [3, 8, 6, 2, 7, 7, 8], [5, 8, 5, 6, 3, 6, 4], [6, 7, 5, 5, 5, 5, 5]]","[[4, 4, 4, 4, 4, 4, 4], [4, 4, 4, 4, 4, 4, 4], [4, 4, 4, 4, 4, 4, 4], [4, 4, 4, 4, 4, 4, 4], [4, 4, 4, 4, 4, 4, 4]]","[2, 1, 2, 1, 4]",1.2,22,3,0.042,0.042,0.0,[],default,1,False,False,False,False,7,5,4,implicit-mouselab,24,406179,0.0-3.0-21.0,5f2d49c9013c1f07acdfb8c7,5faed821735c4c09a01dbe66,5faed93be8bca10a185611e9,default,11
mouselab,False,[],"[[4, 6, 7, 5, 5, 4, 4], [6, 7, 4, 6, 3, 5, 6]]","[[2, 2, 2, 2, 2, 2, 2], [2, 2, 2, 2, 2, 2, 2]]","[5, 5]",0.0,23,2,0.055,0.055,0.0,[],default,0,False,False,False,False,7,2,2,implicit-mouselab,25,411607,0.0-3.0-22.0,5f2d49c9013c1f07acdfb8c7,5faed821735c4c09a01dbe66,5faed93be8bca10a185611e9,default,11
mouselab,False,[],"[[5, 5], [0, 5]]","[[2, 2], [2, 2]]","[8, 2]",9.0,24,1,0.05,0.05,0.0,[],control,-1,False,False,False,False,2,2,2,implicit-mouselab,26,416694,0.0-3.0-23.0,5f2d49c9013c1f07acdfb8c7,5faed821735c4c09a01dbe66,5faed93be8bca10a185611e9,default,11
mouselab,True,"[1, 1, 0, 0, 2, 2, 3, 3]","[[4, 7], [6, 4]]","[[1, 1], [1, 1]]","[6, 4]",1.0,1,1,0.058,0.05,0.008,[],control,-1,False,False,False,False,2,2,3,implicit-mouselab,4,153104,0.0-3.0-1.0,5f1aff0eb60b7a05fae8f7c3,5faed821735c4c09a01dbe66,5faed9a4a2a022096eaa71d3,default,12
mouselab,True,[],"[[2, 1, 4, 6, 2, 4, 5], [3, 3, 5, 3, 3, 2, 6], [5, 4, 3, 6, 6, 4, 2], [6, 4, 4, 6, 4, 3, 8], [2, 6, 3, 4, 5, 3, 5]]","[[2, 2, 2, 2, 2, 2, 2], [2, 2, 2, 2, 2, 2, 2], [2, 2, 2, 2, 2, 2, 2], [2, 2, 2, 2, 2, 2, 2], [2, 2, 2, 2, 2, 2, 2]]","[3, 1, 2, 2, 2]",0.4,2,0,0.035,0.035,0.0,[],control,-1,False,False,False,False,7,5,2,implicit-mouselab,5,178533,0.0-3.0-2.0,5f1aff0eb60b7a05fae8f7c3,5faed821735c4c09a01dbe66,5faed9a4a2a022096eaa71d3,default,12
mouselab,False,[],"[[4, 8], [5, 6]]","[[2, 2], [2, 2]]","[4, 6]",1.0,5,1,0.068,0.068,0.0,[],control,-1,False,False,False,False,2,2,2,implicit-mouselab,7,191043,0.0-3.0-4.0,5f1aff0eb60b7a05fae8f7c3,5faed821735c4c09a01dbe66,5faed9a4a2a022096eaa71d3,default,12
mouselab,False,[],"[[5, 5, 3, 7, 5, 7, 6], [2, 2, 4, 3, 7, 4, 3], [5, 7, 4, 5, 9, 2, 7], [8, 4, 10, 5, 5, 2, 3], [4, 4, 5, 7, 6, 4, 5]]","[[4, 4, 4, 4, 4, 4, 4], [4, 4, 4, 4, 4, 4, 4], [4, 4, 4, 4, 4, 4, 4], [4, 4, 4, 4, 4, 4, 4], [4, 4, 4, 4, 4, 4, 4]]","[2, 1, 4, 2, 1]",1.2,6,2,0.051,0.051,0.0,[],default,2,True,False,True,False,7,5,4,implicit-mouselab,8,210801,0.0-3.0-5.0,5f1aff0eb60b7a05fae8f7c3,5faed821735c4c09a01dbe66,5faed9a4a2a022096eaa71d3,default,12
mouselab,False,[],"[[3, 6, 2, 5, 2, 7, 2], [9, 2, 5, 4, 5, 7, 5], [3, 4, 3, 5, 6, 7, 6], [6, 5, 6, 0, 3, 3, 6], [1, 8, 4, 8, 7, 3, 5]]","[[2, 2, 2, 2, 2, 2, 2], [2, 2, 2, 2, 2, 2, 2], [2, 2, 2, 2, 2, 2, 2], [2, 2, 2, 2, 2, 2, 2], [2, 2, 2, 2, 2, 2, 2]]","[4, 2, 1, 1, 2]",1.2,7,5,0.058,0.058,0.0,[],default,5,True,False,True,False,7,5,2,implicit-mouselab,9,222029,0.0-3.0-6.0,5f1aff0eb60b7a05fae8f7c3,5faed821735c4c09a01dbe66,5faed9a4a2a022096eaa71d3,default,12
mouselab,False,[],"[[6, 6, 8, 7, 5, 2, 3], [3, 8, 4, 8, 7, 1, 5]]","[[3, 3, 3, 3, 3, 3, 3], [3, 3, 3, 3, 3, 3, 3]]","[3, 7]",4.0,8,6,0.044,0.044,0.0,[],control,-1,False,False,False,False,7,2,3,implicit-mouselab,10,228984,0.0-3.0-7.0,5f1aff0eb60b7a05fae8f7c3,5faed821735c4c09a01dbe66,5faed9a4a2a022096eaa71d3,default,12
mouselab,False,[],"[[2, 6], [5, 6]]","[[1, 1], [1, 1]]","[8, 2]",9.0,9,0,0.026,0.026,0.0,[],default,1,False,False,False,False,2,2,1,implicit-mouselab,11,238691,0.0-3.0-8.0,5f1aff0eb60b7a05fae8f7c3,5faed821735c4c09a01dbe66,5faed9a4a2a022096eaa71d3,default,12
mouselab,False,[],"[[6, 6], [8, 3]]","[[1, 1], [1, 1]]","[1, 9]",16.0,10,0,0.078,0.078,0.0,[],control,-1,False,False,False,False,2,2,1,implicit-mouselab,12,242958,0.0-3.0-9.0,5f1aff0eb60b7a05fae8f7c3,5faed821735c4c09a01dbe66,5faed9a4a2a022096eaa71d3,default,12
mouselab,False,[],"[[3, 4, 5, 6, 8, 8, 6], [4, 5, 1, 8, 4, 6, 6], [6, 5, 6, 5, 5, 2, 5], [4, 5, 6, 5, 6, 5, 7], [4, 7, 7, 6, 8, 4, 4]]","[[4, 4, 4, 4, 4, 4, 4], [4, 4, 4, 4, 4, 4, 4], [4, 4, 4, 4, 4, 4, 4], [4, 4, 4, 4, 4, 4, 4], [4, 4, 4, 4, 4, 4, 4]]","[1, 3, 1, 2, 3]",0.8,11,3,0.063,0.063,0.0,[],control,-1,False,False,False,False,7,5,4,implicit-mouselab,13,248188,0.0-3.0-10.0,5f1aff0eb60b7a05fae8f7c3,5faed821735c4c09a01dbe66,5faed9a4a2a022096eaa71d3,default,12
mouselab,False,[],"[[4, 9, 6, 6, 8, 5, 5], [3, 6, 2, 7, 6, 4, 6]]","[[4, 4, 4, 4, 4, 4, 4], [4, 4, 4, 4, 4, 4, 4]]","[2, 8]",9.0,12,4,0.064,0.064,0.0,[],default,4,True,False,True,False,7,2,4,implicit-mouselab,14,253408,0.0-3.0-11.0,5f1aff0eb60b7a05fae8f7c3,5faed821735c4c09a01dbe66,5faed9a4a2a022096eaa71d3,default,12
mouselab,False,[],"[[4, 5, 6, 5, 5, 4, 6], [6, 2, 3, 3, 5, 5, 5], [5, 3, 6, 8, 5, 6, 4], [8, 3, 4, 5, 3, 4, 6], [7, 4, 6, 6, 4, 7, 7]]","[[4, 4, 4, 4, 4, 4, 4], [4, 4, 4, 4, 4, 4, 4], [4, 4, 4, 4, 4, 4, 4], [4, 4, 4, 4, 4, 4, 4], [4, 4, 4, 4, 4, 4, 4]]","[1, 1, 4, 3, 1]",1.6,13,2,0.051,0.051,0.0,[],default,4,False,False,False,False,7,5,4,implicit-mouselab,15,260991,0.0-3.0-12.0,5f1aff0eb60b7a05fae8f7c3,5faed821735c4c09a01dbe66,5faed9a4a2a022096eaa71d3,default,12
mouselab,False,[],"[[8, 6], [6, 3]]","[[4, 4], [4, 4]]","[1, 9]",16.0,14,1,0.033,0.033,0.0,[],control,-1,False,False,False,False,2,2,4,implicit-mouselab,16,265690,0.0-3.0-13.0,5f1aff0eb60b7a05fae8f7c3,5faed821735c4c09a01dbe66,5faed9a4a2a022096eaa71d3,default,12
mouselab,False,[],"[[4, 6], [6, 5]]","[[3, 3], [3, 3]]","[1, 9]",16.0,15,0,0.058,0.058,0.0,[],default,1,False,False,False,False,2,2,3,implicit-mouselab,17,274299,0.0-3.0-14.0,5f1aff0eb60b7a05fae8f7c3,5faed821735c4c09a01dbe66,5faed9a4a2a022096eaa71d3,default,12
mouselab,False,[],"[[8, 5, 5, 7, 9, 4, 6], [6, 2, 4, 3, 5, 6, 6]]","[[1, 1, 1, 1, 1, 1, 1], [1, 1, 1, 1, 1, 1, 1]]","[3, 7]",4.0,16,3,0.042,0.042,0.0,[],control,-1,False,False,False,False,7,2,1,implicit-mouselab,18,277863,0.0-3.0-15.0,5f1aff0eb60b7a05fae8f7c3,5faed821735c4c09a01dbe66,5faed9a4a2a022096eaa71d3,default,12
mouselab,False,[],"[[8, 2], [6, 2], [5, 1], [7, 3], [5, 10]]","[[2, 2], [2, 2], [2, 2], [2, 2], [2, 2]]","[2, 1, 2, 3, 2]",0.4,17,0,0.063,0.063,0.0,[],control,-1,False,False,False,False,2,5,2,implicit-mouselab,19,284543,0.0-3.0-16.0,5f1aff0eb60b7a05fae8f7c3,5faed821735c4c09a01dbe66,5faed9a4a2a022096eaa71d3,default,12
mouselab,False,[],"[[4, 2], [5, 8]]","[[2, 2], [2, 2]]","[6, 4]",1.0,18,0,0.044,0.044,0.0,[],default,0,True,False,True,False,2,2,2,implicit-mouselab,20,288681,0.0-3.0-17.0,5f1aff0eb60b7a05fae8f7c3,5faed821735c4c09a01dbe66,5faed9a4a2a022096eaa71d3,default,12
mouselab,False,[],"[[5, 7, 4, 7, 9, 3, 4], [5, 5, 4, 4, 7, 5, 3], [5, 3, 6, 3, 5, 5, 3], [3, 7, 5, 8, 3, 7, 6], [5, 4, 8, 2, 4, 8, 5]]","[[1, 1, 1, 1, 1, 1, 1], [1, 1, 1, 1, 1, 1, 1], [1, 1, 1, 1, 1, 1, 1], [1, 1, 1, 1, 1, 1, 1], [1, 1, 1, 1, 1, 1, 1]]","[1, 1, 2, 1, 5]",2.4,19,5,0.065,0.065,0.0,[],control,-1,False,False,False,False,7,5,1,implicit-mouselab,21,293457,0.0-3.0-18.0,5f1aff0eb60b7a05fae8f7c3,5faed821735c4c09a01dbe66,5faed9a4a2a022096eaa71d3,default,12
mouselab,False,[],"[[7, 4, 4, 5, 5, 4, 4], [3, 3, 5, 6, 5, 5, 4], [4, 7, 6, 4, 5, 9, 4], [4, 0, 3, 8, 7, 7, 4], [7, 6, 4, 4, 5, 6, 8]]","[[3, 3, 3, 3, 3, 3, 3], [3, 3, 3, 3, 3, 3, 3], [3, 3, 3, 3, 3, 3, 3], [3, 3, 3, 3, 3, 3, 3], [3, 3, 3, 3, 3, 3, 3]]","[2, 1, 2, 1, 4]",1.2,20,0,0.057,0.057,0.0,[],control,-1,False,False,False,False,7,5,3,implicit-mouselab,22,297717,0.0-3.0-19.0,5f1aff0eb60b7a05fae8f7c3,5faed821735c4c09a01dbe66,5faed9a4a2a022096eaa71d3,default,12
mouselab,False,[],"[[1, 2], [6, 5], [6, 3], [8, 5], [9, 6]]","[[3, 3], [3, 3], [3, 3], [3, 3], [3, 3]]","[1, 5, 1, 2, 1]",2.4,21,1,0.046,0.046,0.0,[],default,1,True,False,True,False,2,5,3,implicit-mouselab,23,303699,0.0-3.0-20.0,5f1aff0eb60b7a05fae8f7c3,5faed821735c4c09a01dbe66,5faed9a4a2a022096eaa71d3,default,12
mouselab,False,[],"[[6, 7], [5, 5]]","[[2, 2], [2, 2]]","[3, 7]",4.0,22,0,0.053,0.053,0.0,[],default,0,True,False,True,False,2,2,2,implicit-mouselab,24,307083,0.0-3.0-21.0,5f1aff0eb60b7a05fae8f7c3,5faed821735c4c09a01dbe66,5faed9a4a2a022096eaa71d3,default,12
mouselab,False,[],"[[6, 5, 3, 4, 8, 6, 8], [4, 6, 5, 8, 3, 4, 7], [8, 4, 2, 4, 4, 7, 6], [4, 5, 5, 8, 6, 6, 6], [7, 4, 3, 5, 6, 3, 5]]","[[3, 3, 3, 3, 3, 3, 3], [3, 3, 3, 3, 3, 3, 3], [3, 3, 3, 3, 3, 3, 3], [3, 3, 3, 3, 3, 3, 3], [3, 3, 3, 3, 3, 3, 3]]","[1, 1, 3, 2, 3]",0.8,23,1,0.045,0.045,0.0,[],control,-1,False,False,False,False,7,5,3,implicit-mouselab,25,312721,0.0-3.0-22.0,5f1aff0eb60b7a05fae8f7c3,5faed821735c4c09a01dbe66,5faed9a4a2a022096eaa71d3,default,12
mouselab,False,[],"[[6, 3], [5, 7], [6, 6], [3, 4], [5, 7]]","[[1, 1], [1, 1], [1, 1], [1, 1], [1, 1]]","[1, 1, 4, 2, 2]",1.2,24,0,0.051,0.051,0.0,[],default,0,True,False,True,False,2,5,1,implicit-mouselab,26,316253,0.0-3.0-23.0,5f1aff0eb60b7a05fae8f7c3,5faed821735c4c09a01dbe66,5faed9a4a2a022096eaa71d3,default,12
mouselab,True,"[3, 6, 9, 9, 9, 6, 6, 3, 3, 9, 6, 3]","[[6, 4], [3, 4], [5, 5], [4, 5], [5, 5]]","[[3, 3], [3, 0], [3, 3], [0, 3], [3, 0]]","[2, 2, 3, 1, 2]",0.4,1,0,0.047,0.038,0.009,"[9, 6, 3]",control,-1,False,False,False,False,2,5,3,implicit-mouselab,4,236318,0.0-3.0-1.0,5f22b9e2ab7345037a93fe6c,5faed821735c4c09a01dbe66,5faed975a70d3109278c58e9,default,13
mouselab,True,"[4, 8, 8, 4, 4, 2, 2]","[[4, 6, 3, 5, 9, 5, 5], [5, 4, 6, 6, 6, 4, 5]]","[[2, 2, 0, 2, 0, 2, 2], [2, 0, 2, 2, 2, 2, 2]]","[2, 8]",9.0,2,4,0.066,0.060000000000000005,0.006,"[8, 4, 2]",control,-1,False,False,False,False,7,2,2,implicit-mouselab,5,253735,0.0-3.0-2.0,5f22b9e2ab7345037a93fe6c,5faed821735c4c09a01dbe66,5faed975a70d3109278c58e9,default,13
mouselab,False,"[22, 22, 22, 22, 9, 9, 9, 9, 25, 25]","[[4, 4, 10, 8, 6, 6, 7], [7, 8, 10, 6, 7, 3, 4], [9, 3, 5, 7, 5, 4, 4], [5, 4, 4, 5, 5, 8, 5], [5, 5, 4, 5, 7, 7, 6]]","[[3, 3, 3, 3, 3, 3, 3], [3, 3, 0, 3, 3, 3, 3], [3, 3, 3, 3, 3, 3, 3], [3, 0, 3, 3, 1, 3, 3], [3, 3, 3, 3, 3, 3, 3]]","[1, 3, 2, 3, 1]",0.8,5,2,0.066,0.058,0.008,"[22, 9]",control,-1,False,False,False,False,7,5,3,implicit-mouselab,7,276595,0.0-3.0-4.0,5f22b9e2ab7345037a93fe6c,5faed821735c4c09a01dbe66,5faed975a70d3109278c58e9,default,13
mouselab,False,[],"[[5, 3], [3, 6], [4, 5], [3, 3], [4, 6]]","[[1, 1], [1, 1], [1, 1], [1, 1], [1, 1]]","[2, 5, 1, 1, 1]",2.4,6,1,0.05,0.05,0.0,[],default,1,True,False,True,False,2,5,1,implicit-mouselab,8,285795,0.0-3.0-5.0,5f22b9e2ab7345037a93fe6c,5faed821735c4c09a01dbe66,5faed975a70d3109278c58e9,default,13
mouselab,False,[],"[[5, 3], [7, 4], [5, 5], [7, 4], [3, 3]]","[[4, 4], [4, 4], [4, 4], [4, 4], [4, 4]]","[1, 1, 4, 3, 1]",1.6,7,0,0.056,0.056,0.0,[],default,0,True,False,True,False,2,5,4,implicit-mouselab,9,296910,0.0-3.0-6.0,5f22b9e2ab7345037a93fe6c,5faed821735c4c09a01dbe66,5faed975a70d3109278c58e9,default,13
mouselab,False,[],"[[4, 4], [2, 7]]","[[1, 1], [1, 1]]","[4, 6]",1.0,8,1,0.058,0.058,0.0,[],control,-1,False,False,False,False,2,2,1,implicit-mouselab,10,310939,0.0-3.0-7.0,5f22b9e2ab7345037a93fe6c,5faed821735c4c09a01dbe66,5faed975a70d3109278c58e9,default,13
mouselab,False,[],"[[8, 6, 6, 5, 7, 5, 3], [1, 5, 0, 2, 5, 7, 4], [8, 5, 7, 8, 4, 4, 5], [3, 6, 7, 4, 5, 6, 8], [5, 2, 7, 4, 5, 4, 5]]","[[2, 2, 2, 2, 2, 2, 2], [2, 2, 2, 2, 2, 2, 2], [2, 2, 2, 2, 2, 2, 2], [2, 2, 2, 2, 2, 2, 2], [2, 2, 2, 2, 2, 2, 2]]","[1, 1, 5, 2, 1]",2.4,9,5,0.048,0.048,0.0,[],default,5,True,False,True,False,7,5,2,implicit-mouselab,11,316026,0.0-3.0-8.0,5f22b9e2ab7345037a93fe6c,5faed821735c4c09a01dbe66,5faed975a70d3109278c58e9,default,13
mouselab,False,[],"[[4, 5, 4, 7, 4, 4, 1], [5, 2, 4, 6, 7, 6, 4]]","[[2, 2, 2, 2, 2, 2, 2], [2, 2, 2, 2, 2, 2, 2]]","[8, 2]",9.0,10,0,0.042,0.042,0.0,[],default,0,True,False,True,False,7,2,2,implicit-mouselab,12,321164,0.0-3.0-9.0,5f22b9e2ab7345037a93fe6c,5faed821735c4c09a01dbe66,5faed975a70d3109278c58e9,default,13
mouselab,False,[],"[[7, 8, 5, 4, 5, 5, 5], [6, 6, 5, 6, 5, 7, 3]]","[[4, 4, 4, 4, 4, 4, 4], [4, 4, 4, 4, 4, 4, 4]]","[4, 6]",1.0,11,1,0.068,0.068,0.0,[],default,1,True,False,True,False,7,2,4,implicit-mouselab,13,331233,0.0-3.0-10.0,5f22b9e2ab7345037a93fe6c,5faed821735c4c09a01dbe66,5faed975a70d3109278c58e9,default,13
mouselab,False,[],"[[4, 5], [6, 7]]","[[4, 4], [4, 4]]","[9, 1]",16.0,12,1,0.052,0.052,0.0,[],default,1,True,False,True,False,2,2,4,implicit-mouselab,14,337662,0.0-3.0-11.0,5f22b9e2ab7345037a93fe6c,5faed821735c4c09a01dbe66,5faed975a70d3109278c58e9,default,13
mouselab,False,[],"[[6, 8], [7, 0]]","[[3, 3], [3, 3]]","[5, 5]",0.0,13,0,0.065,0.065,0.0,[],control,-1,False,False,False,False,2,2,3,implicit-mouselab,15,351875,0.0-3.0-12.0,5f22b9e2ab7345037a93fe6c,5faed821735c4c09a01dbe66,5faed975a70d3109278c58e9,default,13
mouselab,False,[],"[[4, 5, 4, 8, 3, 9, 2], [5, 7, 5, 9, 6, 6, 4], [5, 5, 4, 5, 3, 5, 6], [4, 4, 4, 9, 8, 4, 5], [6, 5, 6, 4, 4, 6, 5]]","[[4, 4, 4, 4, 4, 4, 4], [4, 4, 4, 4, 4, 4, 4], [4, 4, 4, 4, 4, 4, 4], [4, 4, 4, 4, 4, 4, 4], [4, 4, 4, 4, 4, 4, 4]]","[1, 3, 1, 3, 2]",0.8,14,4,0.056,0.056,0.0,[],default,4,True,False,True,False,7,5,4,implicit-mouselab,16,356640,0.0-3.0-13.0,5f22b9e2ab7345037a93fe6c,5faed821735c4c09a01dbe66,5faed975a70d3109278c58e9,default,13
mouselab,False,[],"[[7, 3, 3, 5, 6, 5, 4], [4, 2, 3, 1, 7, 4, 6]]","[[3, 3, 3, 3, 3, 3, 3], [3, 3, 3, 3, 3, 3, 3]]","[3, 7]",4.0,15,2,0.03,0.03,0.0,[],control,-1,False,False,False,False,7,2,3,implicit-mouselab,17,360698,0.0-3.0-14.0,5f22b9e2ab7345037a93fe6c,5faed821735c4c09a01dbe66,5faed975a70d3109278c58e9,default,13
mouselab,False,[],"[[3, 4, 9, 2, 4, 4, 4], [5, 5, 6, 4, 3, 4, 5], [2, 5, 3, 6, 3, 4, 8], [7, 5, 6, 5, 5, 6, 6], [7, 6, 7, 3, 6, 7, 6]]","[[3, 3, 3, 3, 3, 3, 3], [3, 3, 3, 3, 3, 3, 3], [3, 3, 3, 3, 3, 3, 3], [3, 3, 3, 3, 3, 3, 3], [3, 3, 3, 3, 3, 3, 3]]","[3, 1, 1, 1, 4]",1.6,16,6,0.055,0.055,0.0,[],control,-1,False,False,False,False,7,5,3,implicit-mouselab,18,364485,0.0-3.0-15.0,5f22b9e2ab7345037a93fe6c,5faed821735c4c09a01dbe66,5faed975a70d3109278c58e9,default,13
mouselab,False,[],"[[3, 8, 3, 6, 6, 10, 4], [6, 2, 7, 5, 3, 2, 4], [4, 3, 7, 4, 3, 8, 4], [6, 6, 4, 6, 5, 2, 6], [6, 5, 8, 3, 4, 3, 5]]","[[2, 2, 2, 2, 2, 2, 2], [2, 2, 2, 2, 2, 2, 2], [2, 2, 2, 2, 2, 2, 2], [2, 2, 2, 2, 2, 2, 2], [2, 2, 2, 2, 2, 2, 2]]","[4, 1, 1, 1, 3]",1.6,17,2,0.054,0.054,0.0,[],default,4,False,False,False,False,7,5,2,implicit-mouselab,19,368563,0.0-3.0-16.0,5f22b9e2ab7345037a93fe6c,5faed821735c4c09a01dbe66,5faed975a70d3109278c58e9,default,13
mouselab,False,[],"[[3, 3], [6, 6]]","[[1, 1], [1, 1]]","[2, 8]",9.0,18,0,0.054,0.054,0.0,[],control,-1,False,False,False,False,2,2,1,implicit-mouselab,20,372738,0.0-3.0-17.0,5f22b9e2ab7345037a93fe6c,5faed821735c4c09a01dbe66,5faed975a70d3109278c58e9,default,13
mouselab,False,[],"[[7, 6], [5, 4], [8, 4], [8, 4], [2, 5]]","[[2, 2], [2, 2], [2, 2], [2, 2], [2, 2]]","[1, 1, 2, 2, 4]",1.2,19,0,0.052,0.052,0.0,[],default,0,True,False,True,False,2,5,2,implicit-mouselab,21,376096,0.0-3.0-18.0,5f22b9e2ab7345037a93fe6c,5faed821735c4c09a01dbe66,5faed975a70d3109278c58e9,default,13
mouselab,False,[],"[[4, 3], [4, 4], [3, 6], [3, 4], [6, 3]]","[[4, 4], [4, 4], [4, 4], [4, 4], [4, 4]]","[1, 5, 1, 2, 1]",2.4,20,1,0.04,0.04,0.0,[],control,-1,False,False,False,False,2,5,4,implicit-mouselab,22,378344,0.0-3.0-19.0,5f22b9e2ab7345037a93fe6c,5faed821735c4c09a01dbe66,5faed975a70d3109278c58e9,default,13
mouselab,False,[],"[[6, 7, 6, 2, 10, 5, 4], [3, 4, 2, 3, 7, 3, 2]]","[[1, 1, 1, 1, 1, 1, 1], [1, 1, 1, 1, 1, 1, 1]]","[5, 5]",0.0,21,5,0.04,0.04,0.0,[],control,-1,False,False,False,False,7,2,1,implicit-mouselab,23,382474,0.0-3.0-20.0,5f22b9e2ab7345037a93fe6c,5faed821735c4c09a01dbe66,5faed975a70d3109278c58e9,default,13
mouselab,False,[],"[[3, 3, 4, 8, 5, 4, 2], [5, 3, 2, 5, 4, 6, 6], [3, 7, 1, 5, 5, 2, 9], [5, 4, 6, 8, 3, 4, 6], [3, 1, 2, 2, 4, 5, 4]]","[[3, 3, 3, 3, 3, 3, 3], [3, 3, 3, 3, 3, 3, 3], [3, 3, 3, 3, 3, 3, 3], [3, 3, 3, 3, 3, 3, 3], [3, 3, 3, 3, 3, 3, 3]]","[5, 1, 1, 2, 1]",2.4,22,1,0.034,0.034,0.0,[],control,-1,False,False,False,False,7,5,3,implicit-mouselab,24,385263,0.0-3.0-21.0,5f22b9e2ab7345037a93fe6c,5faed821735c4c09a01dbe66,5faed975a70d3109278c58e9,default,13
mouselab,False,[],"[[6, 5], [5, 9]]","[[2, 2], [2, 2]]","[2, 8]",9.0,23,1,0.082,0.082,0.0,[],default,0,False,False,False,False,2,2,2,implicit-mouselab,25,391909,0.0-3.0-22.0,5f22b9e2ab7345037a93fe6c,5faed821735c4c09a01dbe66,5faed975a70d3109278c58e9,default,13
mouselab,False,[],"[[3, 6], [5, 5]]","[[1, 1], [1, 1]]","[9, 1]",16.0,24,0,0.032,0.032,0.0,[],control,-1,False,False,False,False,2,2,1,implicit-mouselab,26,395835,0.0-3.0-23.0,5f22b9e2ab7345037a93fe6c,5faed821735c4c09a01dbe66,5faed975a70d3109278c58e9,default,13
mouselab,True,"[3, 3, 3, 3]","[[7, 4], [6, 8]]","[[3, 3], [3, 0]]","[1, 9]",16.0,1,1,0.076,0.073,0.003,[3],control,-1,False,False,False,False,2,2,3,implicit-mouselab,4,285704,0.0-3.0-1.0,5f3dfbe7871782220d460d41,5faed821735c4c09a01dbe66,5faed8c0b8e22c09a30ade63,default,14
mouselab,True,"[2, 2, 5, 5]","[[5, 5, 3, 6, 3, 6, 5], [5, 4, 5, 3, 5, 5, 7], [2, 5, 6, 4, 4, 2, 5], [5, 6, 6, 8, 7, 3, 3], [2, 3, 6, 5, 8, 2, 7]]","[[2, 2, 0, 2, 2, 0, 2], [2, 2, 2, 2, 2, 2, 2], [2, 2, 2, 2, 2, 2, 2], [2, 2, 2, 2, 2, 2, 2], [2, 2, 2, 2, 2, 2, 2]]","[4, 2, 1, 1, 2]",1.2,2,5,0.043,0.03899999999999999,0.004,"[2, 5]",control,-1,False,False,False,False,7,5,2,implicit-mouselab,5,305811,0.0-3.0-2.0,5f3dfbe7871782220d460d41,5faed821735c4c09a01dbe66,5faed8c0b8e22c09a30ade63,default,14
mouselab,False,"[1, 1, 1, 1, 4, 4, 4, 4]","[[5, 1, 6, 4, 5, 6, 6], [6, 5, 4, 6, 5, 4, 3]]","[[4, 0, 4, 4, 0, 4, 4], [4, 4, 4, 4, 4, 4, 4]]","[8, 2]",9.0,5,4,0.05,0.042,0.008,"[1, 4]",control,-1,False,False,False,False,7,2,4,implicit-mouselab,7,329583,0.0-3.0-4.0,5f3dfbe7871782220d460d41,5faed821735c4c09a01dbe66,5faed8c0b8e22c09a30ade63,default,14
mouselab,False,"[14, 20]","[[0, 7, 3, 7, 3, 3, 6], [4, 4, 3, 8, 3, 7, 6], [5, 2, 6, 4, 4, 6, 9], [4, 4, 4, 6, 4, 4, 6], [8, 4, 5, 7, 3, 8, 5]]","[[1, 1, 1, 1, 1, 1, 1], [1, 1, 1, 1, 1, 1, 1], [0, 1, 1, 1, 1, 1, 0], [1, 1, 1, 1, 1, 1, 1], [1, 1, 1, 1, 1, 1, 1]]","[1, 1, 4, 1, 3]",1.6,6,6,0.069,0.067,0.002,"[14, 20]",control,-1,False,False,False,False,7,5,1,implicit-mouselab,8,348666,0.0-3.0-5.0,5f3dfbe7871782220d460d41,5faed821735c4c09a01dbe66,5faed8c0b8e22c09a30ade63,default,14
mouselab,False,"[0, 0, 0, 0]","[[5, 4], [6, 3]]","[[0, 4], [4, 4]]","[9, 1]",16.0,7,0,0.051,0.047,0.004,[0],control,-1,False,False,False,False,2,2,4,implicit-mouselab,9,364089,0.0-3.0-6.0,5f3dfbe7871782220d460d41,5faed821735c4c09a01dbe66,5faed8c0b8e22c09a30ade63,default,14
mouselab,False,[],"[[5, 2], [2, 3]]","[[3, 3], [3, 3]]","[8, 2]",9.0,8,1,0.022,0.022,0.0,[],default,1,True,False,True,False,2,2,3,implicit-mouselab,10,381290,0.0-3.0-7.0,5f3dfbe7871782220d460d41,5faed821735c4c09a01dbe66,5faed8c0b8e22c09a30ade63,default,14
mouselab,False,"[1, 1, 1, 1]","[[4, 1], [1, 2]]","[[4, 0], [4, 4]]","[7, 3]",4.0,9,0,0.031,0.027,0.004,[1],control,-1,False,False,False,False,2,2,4,implicit-mouselab,11,394018,0.0-3.0-8.0,5f3dfbe7871782220d460d41,5faed821735c4c09a01dbe66,5faed8c0b8e22c09a30ade63,default,14
mouselab,False,"[21, 21, 21, 24, 24, 24, 23, 23, 23]","[[4, 7, 7, 6, 6, 8, 4], [7, 6, 4, 7, 2, 4, 4], [3, 4, 4, 6, 4, 4, 3], [5, 6, 7, 4, 2, 6, 4], [4, 5, 4, 6, 6, 7, 6]]","[[3, 3, 3, 3, 3, 3, 3], [3, 3, 3, 3, 3, 3, 3], [3, 3, 3, 3, 3, 3, 3], [0, 3, 0, 0, 3, 3, 3], [3, 3, 3, 3, 3, 3, 3]]","[1, 2, 1, 5, 1]",2.4,10,2,0.058,0.049,0.009,"[21, 24, 23]",default,6,False,False,False,False,7,5,3,implicit-mouselab,12,422201,0.0-3.0-9.0,5f3dfbe7871782220d460d41,5faed821735c4c09a01dbe66,5faed8c0b8e22c09a30ade63,default,14
mouselab,False,"[0, 3]","[[3, 5], [4, 5]]","[[0, 1], [1, 0]]","[5, 5]",0.0,11,1,0.05,0.048,0.002,"[0, 3]",control,-1,False,False,False,False,2,2,1,implicit-mouselab,13,436341,0.0-3.0-10.0,5f3dfbe7871782220d460d41,5faed821735c4c09a01dbe66,5faed8c0b8e22c09a30ade63,default,14
mouselab,False,"[2, 2, 2, 2]","[[6, 5], [4, 6], [4, 9], [3, 6], [4, 3]]","[[4, 4], [0, 4], [4, 4], [4, 4], [4, 4]]","[2, 3, 2, 2, 1]",0.4,12,0,0.042,0.038000000000000006,0.004,[2],control,-1,False,False,False,False,2,5,4,implicit-mouselab,14,454009,0.0-3.0-11.0,5f3dfbe7871782220d460d41,5faed821735c4c09a01dbe66,5faed8c0b8e22c09a30ade63,default,14
mouselab,False,"[13, 13, 10, 10, 7, 7]","[[4, 8, 5, 3, 4, 5, 5], [8, 4, 4, 6, 5, 4, 6], [3, 3, 5, 5, 5, 5, 2], [3, 6, 4, 4, 5, 5, 8], [7, 6, 4, 4, 5, 6, 3]]","[[2, 2, 2, 2, 2, 2, 2], [0, 2, 2, 0, 2, 2, 0], [2, 2, 2, 2, 2, 2, 2], [2, 2, 2, 2, 2, 2, 2], [2, 2, 2, 2, 2, 2, 2]]","[1, 5, 2, 1, 1]",2.4,13,0,0.06,0.054,0.006,"[13, 10, 7]",default,1,False,False,False,False,7,5,2,implicit-mouselab,15,474817,0.0-3.0-12.0,5f3dfbe7871782220d460d41,5faed821735c4c09a01dbe66,5faed8c0b8e22c09a30ade63,default,14
mouselab,False,"[21, 21, 32, 32, 23, 23, 34, 34]","[[7, 5, 6, 4, 9, 7, 3], [3, 2, 4, 4, 3, 2, 4], [7, 3, 1, 3, 5, 4, 6], [3, 7, 3, 5, 4, 7, 6], [4, 5, 6, 5, 4, 5, 9]]","[[2, 2, 2, 2, 2, 2, 2], [2, 2, 2, 2, 2, 2, 2], [2, 2, 2, 2, 2, 2, 2], [0, 2, 0, 2, 2, 2, 2], [2, 2, 2, 2, 0, 2, 0]]","[1, 1, 2, 3, 3]",0.8,14,6,0.064,0.056,0.008,"[21, 32, 23, 34]",control,-1,False,False,False,False,7,5,2,implicit-mouselab,16,502677,0.0-3.0-13.0,5f3dfbe7871782220d460d41,5faed821735c4c09a01dbe66,5faed8c0b8e22c09a30ade63,default,14
mouselab,False,"[6, 6, 6]","[[3, 7], [7, 4], [6, 6], [8, 2], [7, 5]]","[[3, 3], [3, 3], [3, 3], [0, 3], [3, 3]]","[1, 2, 1, 4, 2]",1.2,15,0,0.069,0.066,0.003,[6],control,-1,False,False,False,False,2,5,3,implicit-mouselab,17,514619,0.0-3.0-14.0,5f3dfbe7871782220d460d41,5faed821735c4c09a01dbe66,5faed8c0b8e22c09a30ade63,default,14
mouselab,False,[],"[[6, 5], [5, 5]]","[[3, 3], [3, 3]]","[1, 9]",16.0,16,0,0.051,0.051,0.0,[],default,0,True,False,True,False,2,2,3,implicit-mouselab,18,520700,0.0-3.0-15.0,5f3dfbe7871782220d460d41,5faed821735c4c09a01dbe66,5faed8c0b8e22c09a30ade63,default,14
mouselab,False,[],"[[5, 3], [4, 5]]","[[4, 4], [4, 4]]","[6, 4]",1.0,17,1,0.038,0.038,0.0,[],default,1,True,False,True,False,2,2,4,implicit-mouselab,19,526511,0.0-3.0-16.0,5f3dfbe7871782220d460d41,5faed821735c4c09a01dbe66,5faed8c0b8e22c09a30ade63,default,14
mouselab,False,"[21, 24, 26, 23]","[[7, 7, 2, 7, 5, 4, 4], [4, 0, 4, 2, 5, 3, 5], [6, 3, 6, 7, 6, 5, 6], [6, 4, 7, 2, 8, 4, 7], [4, 3, 6, 3, 4, 3, 3]]","[[1, 1, 1, 1, 1, 1, 1], [1, 1, 1, 1, 1, 1, 1], [1, 1, 1, 1, 1, 1, 1], [0, 1, 0, 0, 1, 0, 1], [1, 1, 1, 1, 1, 1, 1]]","[2, 1, 1, 5, 1]",2.4,18,2,0.055,0.051000000000000004,0.004,"[21, 24, 26, 23]",default,2,False,False,True,False,7,5,1,implicit-mouselab,20,545761,0.0-3.0-17.0,5f3dfbe7871782220d460d41,5faed821735c4c09a01dbe66,5faed8c0b8e22c09a30ade63,default,14
mouselab,False,[],"[[5, 8, 2, 5, 5, 5, 3], [7, 4, 6, 4, 3, 7, 3], [6, 5, 5, 4, 3, 6, 7], [1, 6, 6, 3, 4, 9, 4], [4, 7, 7, 5, 6, 5, 4]]","[[1, 1, 1, 1, 1, 1, 1], [1, 1, 1, 1, 1, 1, 1], [1, 1, 1, 1, 1, 1, 1], [1, 1, 1, 1, 1, 1, 1], [1, 1, 1, 1, 1, 1, 1]]","[2, 1, 2, 1, 4]",1.2,19,6,0.043,0.043,0.0,[],default,6,True,False,True,False,7,5,1,implicit-mouselab,21,554022,0.0-3.0-18.0,5f3dfbe7871782220d460d41,5faed821735c4c09a01dbe66,5faed8c0b8e22c09a30ade63,default,14
mouselab,False,"[4, 4, 2, 2]","[[3, 4, 8, 9, 5, 7, 4], [7, 5, 5, 5, 4, 4, 7]]","[[2, 2, 0, 2, 0, 2, 2], [2, 2, 2, 2, 2, 2, 2]]","[7, 3]",4.0,20,2,0.071,0.06699999999999999,0.004,"[4, 2]",default,1,False,False,False,False,7,2,2,implicit-mouselab,22,572065,0.0-3.0-19.0,5f3dfbe7871782220d460d41,5faed821735c4c09a01dbe66,5faed8c0b8e22c09a30ade63,default,14
mouselab,False,"[0, 3, 6]","[[6, 5, 6, 4, 6, 0, 8], [5, 5, 5, 5, 5, 3, 5], [8, 6, 3, 6, 1, 6, 7], [3, 6, 7, 5, 4, 8, 6], [3, 1, 5, 4, 7, 4, 6]]","[[0, 1, 1, 0, 1, 1, 0], [1, 1, 1, 1, 1, 1, 1], [1, 1, 1, 1, 1, 1, 1], [1, 1, 1, 1, 1, 1, 1], [1, 1, 1, 1, 1, 1, 1]]","[3, 3, 1, 2, 1]",0.8,21,6,0.064,0.061,0.003,"[0, 3, 6]",control,-1,False,False,False,False,7,5,1,implicit-mouselab,23,586108,0.0-3.0-20.0,5f3dfbe7871782220d460d41,5faed821735c4c09a01dbe66,5faed8c0b8e22c09a30ade63,default,14
mouselab,False,[],"[[6, 7], [3, 4]]","[[2, 2], [2, 2]]","[2, 8]",9.0,22,0,0.036,0.036,0.0,[],default,0,True,False,True,False,2,2,2,implicit-mouselab,24,591539,0.0-3.0-21.0,5f3dfbe7871782220d460d41,5faed821735c4c09a01dbe66,5faed8c0b8e22c09a30ade63,default,14
mouselab,False,[],"[[4, 4], [4, 7], [8, 3], [4, 2], [7, 3]]","[[3, 3], [3, 3], [3, 3], [3, 3], [3, 3]]","[3, 1, 1, 2, 3]",0.8,23,1,0.035,0.035,0.0,[],default,1,True,False,True,False,2,5,3,implicit-mouselab,25,597125,0.0-3.0-22.0,5f3dfbe7871782220d460d41,5faed821735c4c09a01dbe66,5faed8c0b8e22c09a30ade63,default,14
mouselab,False,"[7, 7, 9, 9, 13, 13]","[[5, 3, 8, 3, 5, 5, 5], [5, 4, 6, 7, 6, 7, 4]]","[[2, 2, 2, 2, 2, 2, 2], [0, 2, 0, 2, 2, 2, 0]]","[2, 8]",9.0,24,4,0.058,0.052000000000000005,0.006,"[7, 9, 13]",control,-1,False,False,False,False,7,2,2,implicit-mouselab,26,612056,0.0-3.0-23.0,5f3dfbe7871782220d460d41,5faed821735c4c09a01dbe66,5faed8c0b8e22c09a30ade63,default,14
mouselab,True,"[8, 11, 13, 7]","[[5, 3, 5, 3, 8, 4, 7], [1, 6, 7, 4, 3, 7, 7]]","[[2, 2, 2, 2, 2, 2, 2], [1, 1, 2, 2, 1, 2, 1]]","[2, 8]",9.0,1,3,0.038,0.034,0.004,[],control,-1,False,False,False,False,7,2,2,implicit-mouselab,4,201005,0.0-3.0-1.0,5ee64d41b067113b09098d5e,5faed821735c4c09a01dbe66,5faed98ba70d31099dfadae8,default,15
mouselab,True,"[6, 7, 3, 2]","[[3, 7], [7, 5], [5, 1], [8, 5], [5, 5]]","[[3, 3], [2, 2], [3, 3], [2, 2], [3, 3]]","[2, 3, 1, 3, 1]",0.8,2,0,0.061,0.056999999999999995,0.004,[],control,-1,False,False,False,False,2,5,3,implicit-mouselab,5,223480,0.0-3.0-2.0,5ee64d41b067113b09098d5e,5faed821735c4c09a01dbe66,5faed98ba70d31099dfadae8,default,15
mouselab,False,[],"[[6, 5], [3, 6]]","[[1, 1], [1, 1]]","[1, 9]",16.0,5,1,0.059,0.059,0.0,[],default,1,True,False,True,False,2,2,1,implicit-mouselab,7,235730,0.0-3.0-4.0,5ee64d41b067113b09098d5e,5faed821735c4c09a01dbe66,5faed98ba70d31099dfadae8,default,15
mouselab,False,"[0, 1, 1, 0, 0, 1, 1, 0]","[[8, 5], [8, 5]]","[[0, 0], [4, 4]]","[6, 4]",1.0,6,0,0.08,0.07200000000000001,0.008,"[1, 0]",control,-1,False,False,False,False,2,2,4,implicit-mouselab,8,257848,0.0-3.0-5.0,5ee64d41b067113b09098d5e,5faed821735c4c09a01dbe66,5faed98ba70d31099dfadae8,default,15
mouselab,False,"[0, 0, 2, 2, 4, 4, 6, 6]","[[4, 3, 3, 4, 3, 9, 6], [5, 3, 4, 4, 8, 4, 2]]","[[0, 2, 0, 2, 0, 2, 0], [2, 2, 2, 2, 2, 2, 2]]","[7, 3]",4.0,7,6,0.048,0.04,0.008,"[0, 2, 4, 6]",control,-1,False,False,False,False,7,2,2,implicit-mouselab,9,276963,0.0-3.0-6.0,5ee64d41b067113b09098d5e,5faed821735c4c09a01dbe66,5faed98ba70d31099dfadae8,default,15
mouselab,False,[],"[[8, 5], [5, 5], [6, 2], [4, 7], [5, 7]]","[[2, 2], [2, 2], [2, 2], [2, 2], [2, 2]]","[4, 1, 1, 3, 1]",1.6,8,1,0.055,0.055,0.0,[],default,1,True,False,True,False,2,5,2,implicit-mouselab,10,286418,0.0-3.0-7.0,5ee64d41b067113b09098d5e,5faed821735c4c09a01dbe66,5faed98ba70d31099dfadae8,default,15
mouselab,False,[],"[[6, 6, 9, 8, 5, 7, 5], [6, 5, 5, 3, 4, 6, 4]]","[[3, 3, 3, 3, 3, 3, 3], [3, 3, 3, 3, 3, 3, 3]]","[5, 5]",0.0,9,3,0.055,0.055,0.0,[],control,-1,False,False,False,False,7,2,3,implicit-mouselab,11,294599,0.0-3.0-8.0,5ee64d41b067113b09098d5e,5faed821735c4c09a01dbe66,5faed98ba70d31099dfadae8,default,15
mouselab,False,[],"[[6, 5], [6, 5]]","[[4, 4], [4, 4]]","[5, 5]",0.0,10,0,0.06,0.06,0.0,[],default,0,True,False,True,False,2,2,4,implicit-mouselab,12,300589,0.0-3.0-9.0,5ee64d41b067113b09098d5e,5faed821735c4c09a01dbe66,5faed98ba70d31099dfadae8,default,15
mouselab,False,[],"[[5, 5, 3, 4, 5, 5, 5], [3, 0, 5, 6, 3, 6, 5], [5, 3, 8, 7, 5, 4, 6], [5, 4, 6, 8, 5, 4, 4], [6, 5, 4, 5, 4, 5, 7]]","[[3, 3, 3, 3, 3, 3, 3], [3, 3, 3, 3, 3, 3, 3], [3, 3, 3, 3, 3, 3, 3], [3, 3, 3, 3, 3, 3, 3], [3, 3, 3, 3, 3, 3, 3]]","[1, 2, 5, 1, 1]",2.4,11,3,0.064,0.064,0.0,[],default,3,True,False,True,False,7,5,3,implicit-mouselab,13,305199,0.0-3.0-10.0,5ee64d41b067113b09098d5e,5faed821735c4c09a01dbe66,5faed98ba70d31099dfadae8,default,15
mouselab,False,"[7, 7, 7, 7, 10, 10, 10, 10, 13, 13, 13, 13]","[[5, 7, 8, 4, 5, 6, 6], [3, 7, 4, 5, 6, 3, 9]]","[[4, 4, 4, 4, 4, 4, 4], [0, 4, 4, 0, 4, 4, 0]]","[3, 7]",4.0,12,6,0.081,0.069,0.012,"[7, 10, 13]",control,-1,False,False,False,False,7,2,4,implicit-mouselab,14,318902,0.0-3.0-11.0,5ee64d41b067113b09098d5e,5faed821735c4c09a01dbe66,5faed98ba70d31099dfadae8,default,15
mouselab,False,[],"[[3, 8, 4, 5, 9, 6, 8], [6, 4, 5, 5, 4, 5, 1], [6, 7, 2, 6, 5, 1, 5], [7, 2, 5, 4, 6, 4, 7], [6, 1, 4, 3, 3, 6, 6]]","[[1, 1, 1, 1, 1, 1, 1], [1, 1, 1, 1, 1, 1, 1], [1, 1, 1, 1, 1, 1, 1], [1, 1, 1, 1, 1, 1, 1], [1, 1, 1, 1, 1, 1, 1]]","[1, 4, 2, 2, 1]",1.2,13,1,0.043,0.043,0.0,[],default,1,True,False,True,False,7,5,1,implicit-mouselab,15,322294,0.0-3.0-12.0,5ee64d41b067113b09098d5e,5faed821735c4c09a01dbe66,5faed98ba70d31099dfadae8,default,15
mouselab,False,[],"[[3, 5], [2, 5]]","[[3, 3], [3, 3]]","[9, 1]",16.0,14,0,0.029,0.029,0.0,[],default,0,True,False,True,False,2,2,3,implicit-mouselab,16,328175,0.0-3.0-13.0,5ee64d41b067113b09098d5e,5faed821735c4c09a01dbe66,5faed98ba70d31099dfadae8,default,15
mouselab,False,[],"[[5, 6, 5, 7, 6, 6, 8], [5, 3, 5, 4, 3, 4, 6], [7, 3, 5, 3, 5, 6, 4], [1, 6, 7, 6, 7, 4, 3], [7, 7, 7, 2, 4, 7, 6]]","[[1, 1, 1, 1, 1, 1, 1], [1, 1, 1, 1, 1, 1, 1], [1, 1, 1, 1, 1, 1, 1], [1, 1, 1, 1, 1, 1, 1], [1, 1, 1, 1, 1, 1, 1]]","[2, 1, 4, 2, 1]",1.2,15,4,0.053,0.053,0.0,[],default,4,True,False,True,False,7,5,1,implicit-mouselab,17,333256,0.0-3.0-14.0,5ee64d41b067113b09098d5e,5faed821735c4c09a01dbe66,5faed98ba70d31099dfadae8,default,15
mouselab,False,[],"[[2, 6, 5, 7, 3, 5, 8], [8, 4, 8, 8, 5, 5, 2]]","[[4, 4, 4, 4, 4, 4, 4], [4, 4, 4, 4, 4, 4, 4]]","[8, 2]",9.0,16,3,0.072,0.072,0.0,[],default,3,True,False,True,False,7,2,4,implicit-mouselab,18,336847,0.0-3.0-15.0,5ee64d41b067113b09098d5e,5faed821735c4c09a01dbe66,5faed98ba70d31099dfadae8,default,15
mouselab,False,[],"[[2, 2, 4, 3, 3, 7, 6], [6, 6, 8, 6, 5, 4, 7], [6, 7, 8, 5, 9, 3, 7], [4, 4, 5, 3, 4, 5, 4], [6, 6, 7, 5, 2, 5, 6]]","[[3, 3, 3, 3, 3, 3, 3], [3, 3, 3, 3, 3, 3, 3], [3, 3, 3, 3, 3, 3, 3], [3, 3, 3, 3, 3, 3, 3], [3, 3, 3, 3, 3, 3, 3]]","[1, 1, 6, 1, 1]",4.0,17,6,0.065,0.065,0.0,[],default,6,True,False,True,False,7,5,3,implicit-mouselab,19,340955,0.0-3.0-16.0,5ee64d41b067113b09098d5e,5faed821735c4c09a01dbe66,5faed98ba70d31099dfadae8,default,15
mouselab,False,"[8, 8, 9, 9]","[[8, 6], [4, 6], [2, 8], [4, 1], [6, 7]]","[[2, 2], [2, 2], [2, 2], [2, 2], [0, 0]]","[1, 2, 1, 1, 5]",2.4,18,1,0.062,0.057999999999999996,0.004,"[8, 9]",control,-1,False,False,False,False,2,5,2,implicit-mouselab,20,351034,0.0-3.0-17.0,5ee64d41b067113b09098d5e,5faed821735c4c09a01dbe66,5faed98ba70d31099dfadae8,default,15
