"","type","is_practice","click_values","payoff_matrix","cost_matrix","weights","weights_variance","trial_num","selected_option","gross_earnings","net_earnings","click_cost","uncovered_values","trial_nudge","nudge_index","accepted_default","accepted_supersize","chose_default","chose_supersize","num_baskets","num_features","cost","trial_type","trial_index","time_elapsed","nudge_type","participant_id"
"1","mouselab","True","[0, 3, 1, 2, 0, 2, 3, 1]","[[5, 6], [6, 3]]","[[0, 0], [0, 0]]","[6, 4]",1,1,1,0.048,0.04,0.008,"[0, 2, 3, 1]","control",-1,"False","False","False","False",2,2,2,"implicit-mouselab",4,95117,"default",1
"2","mouselab","True","[]","[[3, 6, 5, 4, 4, 4, 6], [8, 4, 6, 5, 9, 3, 6], [7, 7, 6, 2, 7, 5, 6], [3, 9, 5, 5, 7, 5, 10], [6, 5, 9, 6, 5, 4, 5]]","[[3, 3, 3, 3, 3, 3, 3], [3, 3, 3, 3, 3, 3, 3], [3, 3, 3, 3, 3, 3, 3], [3, 3, 3, 3, 3, 3, 3], [3, 3, 3, 3, 3, 3, 3]]","[1, 3, 1, 1, 4]",1.6,2,3,0.05,0.05,0,"[]","control",-1,"False","False","False","False",7,5,3,"implicit-mouselab",5,103217,"default",1
"3","mouselab","False","[]","[[4, 9], [5, 4], [4, 4], [5, 6], [8, 3]]","[[1, 1], [1, 1], [1, 1], [1, 1], [1, 1]]","[2, 1, 1, 2, 4]",1.2,5,0,0.059,0.059,0,"[]","default",0,"True","False","True","False",2,5,1,"implicit-mouselab",7,113299,"default",1
"4","mouselab","False","[]","[[4, 6], [5, 8]]","[[4, 4], [4, 4]]","[4, 6]",1,6,1,0.072,0.072,0,"[]","control",-1,"False","False","False","False",2,2,4,"implicit-mouselab",8,118953,"default",1
"5","mouselab","False","[]","[[7, 5], [5, 5]]","[[3, 3], [3, 3]]","[6, 4]",1,7,0,0.062,0.062,0,"[]","control",-1,"False","False","False","False",2,2,3,"implicit-mouselab",9,126191,"default",1
"6","mouselab","False","[]","[[4, 3], [8, 5]]","[[2, 2], [2, 2]]","[9, 1]",16,8,0,0.044,0.044,0,"[]","default",0,"True","False","True","False",2,2,2,"implicit-mouselab",10,145409,"default",1
"7","mouselab","False","[3]","[[6, 4, 4, 5, 6, 7, 7], [6, 3, 7, 6, 4, 6, 6]]","[[1, 1, 1, 0, 1, 1, 1], [1, 1, 1, 1, 1, 1, 1]]","[4, 6]",1,9,3,0.056,0.055,0.001,"[3]","default",6,"False","False","False","False",7,2,1,"implicit-mouselab",11,164555,"default",1
"8","mouselab","False","[]","[[4, 2], [3, 9], [5, 4], [4, 9], [4, 6]]","[[3, 3], [3, 3], [3, 3], [3, 3], [3, 3]]","[1, 6, 1, 1, 1]",4,10,0,0.035,0.035,0,"[]","default",0,"True","False","True","False",2,5,3,"implicit-mouselab",12,168566,"default",1
"9","mouselab","False","[]","[[4, 3], [8, 6]]","[[4, 4], [4, 4]]","[1, 9]",16,11,1,0.057,0.057,0,"[]","default",1,"True","False","True","False",2,2,4,"implicit-mouselab",13,172830,"default",1
"10","mouselab","False","[]","[[5, 4], [4, 6]]","[[2, 2], [2, 2]]","[3, 7]",4,12,1,0.054,0.054,0,"[]","default",1,"False","False","True","False",2,2,2,"implicit-mouselab",14,180962,"default",1
"11","mouselab","False","[16]","[[4, 7, 6, 2, 3, 3, 3], [5, 5, 5, 5, 8, 3, 0], [5, 4, 3, 4, 3, 5, 4], [6, 3, 9, 4, 6, 7, 7], [5, 3, 7, 6, 4, 7, 5]]","[[1, 1, 1, 1, 1, 1, 1], [1, 1, 1, 1, 1, 1, 1], [1, 1, 0, 1, 1, 1, 1], [1, 1, 1, 1, 1, 1, 1], [1, 1, 1, 1, 1, 1, 1]]","[2, 1, 2, 1, 4]",1.2,13,6,0.041,0.04,0.001,"[16]","control",-1,"False","False","False","False",7,5,1,"implicit-mouselab",15,190810,"default",1
"12","mouselab","False","[]","[[5, 6, 6, 7, 5, 4, 6], [5, 2, 5, 6, 8, 5, 6]]","[[4, 4, 4, 4, 4, 4, 4], [4, 4, 4, 4, 4, 4, 4]]","[4, 6]",1,14,2,0.054,0.054,0,"[]","control",-1,"False","False","False","False",7,2,4,"implicit-mouselab",16,215856,"default",1
"13","mouselab","False","[]","[[4, 6], [5, 6]]","[[4, 4], [4, 4]]","[5, 5]",0,15,0,0.045,0.045,0,"[]","default",0,"True","False","True","False",2,2,4,"implicit-mouselab",17,223843,"default",1
"14","mouselab","False","[]","[[5, 4, 3, 3, 2, 5, 8], [4, 6, 7, 4, 5, 4, 7], [6, 2, 8, 6, 4, 8, 5], [4, 5, 4, 5, 5, 8, 2], [2, 7, 6, 5, 4, 4, 4]]","[[2, 2, 2, 2, 2, 2, 2], [2, 2, 2, 2, 2, 2, 2], [2, 2, 2, 2, 2, 2, 2], [2, 2, 2, 2, 2, 2, 2], [2, 2, 2, 2, 2, 2, 2]]","[3, 1, 2, 2, 2]",0.4,16,0,0.043,0.043,0,"[]","default",0,"True","False","True","False",7,5,2,"implicit-mouselab",18,227262,"default",1
"15","mouselab","False","[]","[[3, 8], [5, 7], [5, 4], [7, 2], [3, 3]]","[[3, 3], [3, 3], [3, 3], [3, 3], [3, 3]]","[1, 4, 1, 2, 2]",1.2,17,1,0.05,0.05,0,"[]","default",0,"False","False","False","False",2,5,3,"implicit-mouselab",19,231674,"default",1
"16","mouselab","False","[]","[[3, 5, 5, 4, 6, 6, 6], [5, 5, 4, 3, 1, 1, 6], [5, 5, 4, 2, 6, 6, 4], [4, 3, 4, 5, 4, 3, 1], [6, 8, 6, 4, 5, 5, 5]]","[[1, 1, 1, 1, 1, 1, 1], [1, 1, 1, 1, 1, 1, 1], [1, 1, 1, 1, 1, 1, 1], [1, 1, 1, 1, 1, 1, 1], [1, 1, 1, 1, 1, 1, 1]]","[2, 2, 2, 2, 2]",0,18,4,0.044,0.044,0,"[]","control",-1,"False","False","False","False",7,5,1,"implicit-mouselab",20,233941,"default",1
"17","mouselab","False","[]","[[8, 7, 5, 5, 5, 5, 4], [3, 2, 4, 4, 5, 3, 2]]","[[2, 2, 2, 2, 2, 2, 2], [2, 2, 2, 2, 2, 2, 2]]","[9, 1]",16,19,3,0.049,0.049,0,"[]","control",-1,"False","False","False","False",7,2,2,"implicit-mouselab",21,235448,"default",1
"18","mouselab","False","[]","[[4, 6], [4, 3], [3, 5], [5, 7], [8, 8]]","[[3, 3], [3, 3], [3, 3], [3, 3], [3, 3]]","[1, 5, 1, 2, 1]",2.4,20,1,0.048,0.048,0,"[]","control",-1,"False","False","False","False",2,5,3,"implicit-mouselab",22,237131,"default",1
"19","mouselab","False","[]","[[7, 4, 6, 3, 6, 6, 5], [8, 6, 4, 5, 7, 5, 2]]","[[3, 3, 3, 3, 3, 3, 3], [3, 3, 3, 3, 3, 3, 3]]","[8, 2]",9,21,0,0.072,0.072,0,"[]","default",0,"True","False","True","False",7,2,3,"implicit-mouselab",23,245631,"default",1
"20","mouselab","False","[]","[[7, 5, 6, 5, 6, 5, 8], [4, 9, 4, 7, 6, 5, 5], [5, 7, 5, 7, 5, 5, 7], [5, 4, 4, 6, 6, 4, 6], [4, 5, 5, 5, 5, 3, 5]]","[[1, 1, 1, 1, 1, 1, 1], [1, 1, 1, 1, 1, 1, 1], [1, 1, 1, 1, 1, 1, 1], [1, 1, 1, 1, 1, 1, 1], [1, 1, 1, 1, 1, 1, 1]]","[3, 2, 1, 3, 1]",0.8,22,4,0.058,0.058,0,"[]","control",-1,"False","False","False","False",7,5,1,"implicit-mouselab",24,247489,"default",1
"21","mouselab","False","[]","[[4, 3, 8, 4, 4, 5, 5], [6, 5, 6, 5, 3, 5, 3], [8, 5, 5, 1, 4, 4, 6], [3, 1, 3, 3, 2, 3, 8], [5, 10, 4, 10, 3, 4, 2]]","[[4, 4, 4, 4, 4, 4, 4], [4, 4, 4, 4, 4, 4, 4], [4, 4, 4, 4, 4, 4, 4], [4, 4, 4, 4, 4, 4, 4], [4, 4, 4, 4, 4, 4, 4]]","[1, 1, 4, 2, 2]",1.2,23,6,0.052,0.052,0,"[]","control",-1,"False","False","False","False",7,5,4,"implicit-mouselab",25,249549,"default",1
"22","mouselab","False","[]","[[6, 7, 3, 4, 3, 6, 6], [3, 4, 7, 2, 5, 3, 5], [6, 6, 10, 2, 8, 7, 5], [8, 7, 6, 6, 4, 5, 2], [8, 4, 4, 3, 6, 8, 4]]","[[2, 2, 2, 2, 2, 2, 2], [2, 2, 2, 2, 2, 2, 2], [2, 2, 2, 2, 2, 2, 2], [2, 2, 2, 2, 2, 2, 2], [2, 2, 2, 2, 2, 2, 2]]","[3, 3, 1, 1, 2]",0.8,24,1,0.054,0.054,0,"[]","control",-1,"False","False","False","False",7,5,2,"implicit-mouselab",26,251300,"default",1
"23","mouselab","True","[1, 1, 4, 4, 4, 13, 13]","[[7, 4, 5, 8, 4, 4, 5], [2, 3, 6, 6, 8, 9, 5]]","[[2, 0, 2, 2, 0, 2, 2], [2, 2, 2, 2, 2, 2, 0]]","[3, 7]",4,1,6,0.05,0.044,0.006,"[1, 4, 13]","control",-1,"False","False","False","False",7,2,2,"implicit-mouselab",4,118501,"default",2
"24","mouselab","True","[]","[[1, 4], [6, 4], [3, 4], [3, 6], [4, 5]]","[[3, 3], [3, 3], [3, 3], [3, 3], [3, 3]]","[1, 3, 1, 2, 3]",0.8,2,1,0.047,0.047,0,"[]","control",-1,"False","False","False","False",2,5,3,"implicit-mouselab",5,122650,"default",2
"25","mouselab","False","[]","[[5, 4, 6, 1, 5, 6, 3], [3, 4, 6, 6, 4, 4, 7]]","[[1, 1, 1, 1, 1, 1, 1], [1, 1, 1, 1, 1, 1, 1]]","[4, 6]",1,5,1,0.04,0.04,0,"[]","default",1,"True","False","True","False",7,2,1,"implicit-mouselab",7,127441,"default",2
"26","mouselab","False","[]","[[6, 6], [7, 1], [5, 7], [5, 5], [6, 6]]","[[1, 1], [1, 1], [1, 1], [1, 1], [1, 1]]","[2, 1, 4, 1, 2]",1.2,6,1,0.058,0.058,0,"[]","default",1,"True","False","True","False",2,5,1,"implicit-mouselab",8,132192,"default",2
"27","mouselab","False","[]","[[3, 3], [6, 5], [4, 7], [5, 6], [5, 9]]","[[3, 3], [3, 3], [3, 3], [3, 3], [3, 3]]","[1, 1, 3, 4, 1]",1.6,7,1,0.062,0.062,0,"[]","default",1,"True","False","True","False",2,5,3,"implicit-mouselab",9,136407,"default",2
"28","mouselab","False","[]","[[3, 5], [7, 6]]","[[2, 2], [2, 2]]","[7, 3]",4,8,1,0.053,0.053,0,"[]","control",-1,"False","False","False","False",2,2,2,"implicit-mouselab",10,140042,"default",2
"29","mouselab","False","[]","[[7, 6, 6, 5, 6, 5, 8], [4, 6, 6, 4, 3, 4, 6]]","[[1, 1, 1, 1, 1, 1, 1], [1, 1, 1, 1, 1, 1, 1]]","[2, 8]",9,9,3,0.042,0.042,0,"[]","default",3,"True","False","True","False",7,2,1,"implicit-mouselab",11,142725,"default",2
"30","mouselab","False","[]","[[3, 5], [6, 6]]","[[2, 2], [2, 2]]","[8, 2]",9,10,0,0.036,0.036,0,"[]","control",-1,"False","False","False","False",2,2,2,"implicit-mouselab",12,145771,"default",2
"31","mouselab","False","[6, 6, 6]","[[2, 5, 7, 9, 4, 0, 5], [3, 4, 2, 6, 5, 5, 9]]","[[3, 3, 3, 3, 3, 3, 0], [3, 3, 3, 3, 3, 3, 3]]","[2, 8]",9,11,6,0.082,0.079,0.003,"[6]","control",-1,"False","False","False","False",7,2,3,"implicit-mouselab",13,156344,"default",2
"32","mouselab","False","[]","[[3, 7], [4, 3]]","[[3, 3], [3, 3]]","[2, 8]",9,12,0,0.038,0.038,0,"[]","control",-1,"False","False","False","False",2,2,3,"implicit-mouselab",14,159310,"default",2
"33","mouselab","False","[]","[[4, 6], [4, 6], [5, 3], [5, 4], [6, 4]]","[[4, 4], [4, 4], [4, 4], [4, 4], [4, 4]]","[1, 2, 4, 1, 2]",1.2,13,0,0.049,0.049,0,"[]","default",0,"True","False","True","False",2,5,4,"implicit-mouselab",15,162321,"default",2
"34","mouselab","False","[]","[[6, 9, 4, 3, 5, 7, 5], [6, 5, 6, 5, 5, 4, 4], [7, 5, 5, 9, 5, 6, 5], [6, 6, 4, 4, 6, 1, 6], [4, 7, 8, 6, 5, 6, 4]]","[[4, 4, 4, 4, 4, 4, 4], [4, 4, 4, 4, 4, 4, 4], [4, 4, 4, 4, 4, 4, 4], [4, 4, 4, 4, 4, 4, 4], [4, 4, 4, 4, 4, 4, 4]]","[2, 1, 3, 1, 3]",0.8,14,5,0.055,0.055,0,"[]","default",5,"True","False","True","False",7,5,4,"implicit-mouselab",16,165830,"default",2
"35","mouselab","False","[]","[[3, 7], [6, 7]]","[[4, 4], [4, 4]]","[4, 6]",1,15,1,0.07,0.07,0,"[]","default",1,"True","False","True","False",2,2,4,"implicit-mouselab",17,169899,"default",2
"36","mouselab","False","[]","[[9, 8, 4, 4, 7, 5, 4], [7, 2, 6, 3, 3, 5, 6], [4, 6, 6, 4, 4, 3, 5], [5, 4, 5, 6, 8, 5, 5], [6, 4, 5, 5, 6, 2, 6]]","[[2, 2, 2, 2, 2, 2, 2], [2, 2, 2, 2, 2, 2, 2], [2, 2, 2, 2, 2, 2, 2], [2, 2, 2, 2, 2, 2, 2], [2, 2, 2, 2, 2, 2, 2]]","[3, 1, 2, 3, 1]",0.8,16,0,0.063,0.063,0,"[]","default",0,"True","False","True","False",7,5,2,"implicit-mouselab",18,173127,"default",2
"37","mouselab","False","[]","[[8, 4, 2, 8, 3, 4, 9], [4, 5, 4, 3, 6, 5, 6]]","[[1, 1, 1, 1, 1, 1, 1], [1, 1, 1, 1, 1, 1, 1]]","[9, 1]",16,17,3,0.075,0.075,0,"[]","control",-1,"False","False","False","False",7,2,1,"implicit-mouselab",19,176054,"default",2
"38","mouselab","False","[6]","[[7, 1], [5, 4], [6, 3], [7, 5], [6, 6]]","[[1, 1], [1, 1], [1, 1], [0, 1], [1, 1]]","[1, 3, 1, 4, 1]",1.6,18,0,0.062,0.061,0.001,"[6]","control",-1,"False","False","False","False",2,5,1,"implicit-mouselab",20,186889,"default",2
"39","mouselab","False","[]","[[4, 7, 5, 6, 1, 6, 6], [6, 3, 3, 5, 5, 5, 4]]","[[3, 3, 3, 3, 3, 3, 3], [3, 3, 3, 3, 3, 3, 3]]","[8, 2]",9,19,3,0.058,0.058,0,"[]","control",-1,"False","False","False","False",7,2,3,"implicit-mouselab",21,190000,"default",2
"40","mouselab","False","[]","[[7, 4], [4, 3]]","[[2, 2], [2, 2]]","[1, 9]",16,20,1,0.031,0.031,0,"[]","default",1,"True","False","True","False",2,2,2,"implicit-mouselab",22,192675,"default",2
"41","mouselab","False","[]","[[8, 3], [6, 6], [5, 2], [7, 5], [6, 6]]","[[2, 2], [2, 2], [2, 2], [2, 2], [2, 2]]","[1, 1, 3, 2, 3]",0.8,21,0,0.061,0.061,0,"[]","control",-1,"False","False","False","False",2,5,2,"implicit-mouselab",23,195035,"default",2
"42","mouselab","False","[]","[[4, 5, 3, 5, 5, 4, 5], [5, 7, 6, 6, 6, 3, 4], [6, 7, 4, 6, 6, 6, 3], [7, 5, 0, 8, 7, 6, 4], [4, 2, 6, 6, 3, 4, 4]]","[[3, 3, 3, 3, 3, 3, 3], [3, 3, 3, 3, 3, 3, 3], [3, 3, 3, 3, 3, 3, 3], [3, 3, 3, 3, 3, 3, 3], [3, 3, 3, 3, 3, 3, 3]]","[4, 2, 2, 1, 1]",1.2,22,3,0.058,0.058,0,"[]","control",-1,"False","False","False","False",7,5,3,"implicit-mouselab",24,197634,"default",2
"43","mouselab","False","[]","[[10, 4, 3, 4, 7, 4, 10], [6, 7, 4, 6, 5, 5, 3], [5, 4, 7, 6, 5, 5, 3], [8, 6, 7, 4, 6, 7, 7], [3, 4, 5, 6, 8, 5, 5]]","[[4, 4, 4, 4, 4, 4, 4], [4, 4, 4, 4, 4, 4, 4], [4, 4, 4, 4, 4, 4, 4], [4, 4, 4, 4, 4, 4, 4], [4, 4, 4, 4, 4, 4, 4]]","[2, 3, 1, 2, 2]",0.4,23,5,0.052,0.052,0,"[]","control",-1,"False","False","False","False",7,5,4,"implicit-mouselab",25,199723,"default",2
"44","mouselab","False","[]","[[6, 6, 6, 10, 4, 3, 4], [7, 3, 8, 3, 4, 4, 4], [7, 5, 7, 8, 2, 6, 4], [3, 1, 5, 9, 2, 5, 6], [7, 6, 4, 7, 6, 3, 4]]","[[4, 4, 4, 4, 4, 4, 4], [4, 4, 4, 4, 4, 4, 4], [4, 4, 4, 4, 4, 4, 4], [4, 4, 4, 4, 4, 4, 4], [4, 4, 4, 4, 4, 4, 4]]","[1, 2, 2, 4, 1]",1.2,24,2,0.06,0.06,0,"[]","default",3,"False","False","False","False",7,5,4,"implicit-mouselab",26,203663,"default",2
"45","mouselab","True","[3, 3, 19, 19, 22, 22, 12, 12, 7, 7, 34, 34, 20, 20, 27, 27, 25, 25, 24, 24, 17, 17, 10, 10, 31, 31, 15, 15, 8, 8, 1, 1, 2, 2, 4, 4, 5, 5, 6, 6, 0, 0, 14, 14, 16, 16, 9, 9, 11, 11, 18, 18, 26, 26, 33, 33, 32, 32, 13, 13, 23, 23, 30, 30, 29, 29, 28, 28, 21, 21, 32]","[[0, 7, 6, 5, 8, 4, 6], [5, 5, 3, 7, 5, 4, 5], [3, 6, 7, 2, 4, 5, 6], [7, 5, 5, 6, 4, 3, 6], [6, 1, 5, 6, 6, 4, 5]]","[[0, 0, 0, 0, 0, 0, 0], [0, 0, 0, 0, 0, 0, 0], [0, 0, 0, 0, 0, 0, 0], [0, 0, 0, 0, 0, 0, 0], [0, 0, 0, 0, 0, 0, 0]]","[5, 1, 2, 1, 1]",2.4,1,4,0.063,-0.00700000000000001,0.07,"[3, 19, 22, 12, 7, 34, 20, 27, 25, 24, 17, 10, 31, 15, 8, 1, 2, 4, 5, 6, 0, 14, 16, 9, 11, 18, 26, 33, 32, 13, 23, 30, 29, 28, 21]","control",-1,"False","False","False","False",7,5,2,"implicit-mouselab",4,216766,"default",3
"46","mouselab","True","[]","[[6, 10], [5, 5]]","[[3, 3], [3, 3]]","[6, 4]",1,2,0,0.056,0.056,0,"[]","control",-1,"False","False","False","False",2,2,3,"implicit-mouselab",5,227576,"default",3
"47","mouselab","False","[]","[[5, 3, 4, 5, 5, 6, 7], [6, 4, 3, 2, 6, 4, 5], [6, 4, 5, 6, 3, 5, 4], [7, 5, 3, 7, 4, 4, 3], [4, 2, 7, 4, 4, 6, 4]]","[[1, 1, 1, 1, 1, 1, 1], [1, 1, 1, 1, 1, 1, 1], [1, 1, 1, 1, 1, 1, 1], [1, 1, 1, 1, 1, 1, 1], [1, 1, 1, 1, 1, 1, 1]]","[2, 1, 2, 2, 3]",0.4,5,6,0.045,0.045,0,"[]","default",6,"True","False","True","False",7,5,1,"implicit-mouselab",7,238031,"default",3
"48","mouselab","False","[]","[[7, 4, 5, 2, 4, 7, 4], [1, 6, 4, 4, 4, 6, 5]]","[[1, 1, 1, 1, 1, 1, 1], [1, 1, 1, 1, 1, 1, 1]]","[1, 9]",16,6,0,0.016,0.016,0,"[]","default",0,"True","False","True","False",7,2,1,"implicit-mouselab",8,243743,"default",3
"49","mouselab","False","[]","[[6, 7], [8, 6]]","[[2, 2], [2, 2]]","[6, 4]",1,7,1,0.066,0.066,0,"[]","control",-1,"False","False","False","False",2,2,2,"implicit-mouselab",9,249087,"default",3
"50","mouselab","False","[]","[[3, 3], [6, 5]]","[[3, 3], [3, 3]]","[5, 5]",0,8,1,0.04,0.04,0,"[]","control",-1,"False","False","False","False",2,2,3,"implicit-mouselab",10,254991,"default",3
"51","mouselab","False","[]","[[2, 5], [7, 9], [5, 6], [5, 5], [5, 7]]","[[2, 2], [2, 2], [2, 2], [2, 2], [2, 2]]","[2, 1, 3, 2, 2]",0.4,9,0,0.046,0.046,0,"[]","control",-1,"False","False","False","False",2,5,2,"implicit-mouselab",11,261655,"default",3
"52","mouselab","False","[]","[[5, 5], [4, 4]]","[[3, 3], [3, 3]]","[6, 4]",1,10,0,0.046,0.046,0,"[]","default",0,"True","False","True","False",2,2,3,"implicit-mouselab",12,266199,"default",3
"53","mouselab","False","[]","[[7, 6], [6, 1]]","[[4, 4], [4, 4]]","[3, 7]",4,11,1,0.025,0.025,0,"[]","control",-1,"False","False","False","False",2,2,4,"implicit-mouselab",13,269847,"default",3
"54","mouselab","False","[]","[[4, 5, 5, 7, 5, 5, 5], [3, 6, 8, 5, 2, 4, 6]]","[[2, 2, 2, 2, 2, 2, 2], [2, 2, 2, 2, 2, 2, 2]]","[3, 7]",4,12,4,0.029,0.029,0,"[]","control",-1,"False","False","False","False",7,2,2,"implicit-mouselab",14,273359,"default",3
"55","mouselab","False","[]","[[6, 6], [3, 4], [5, 1], [4, 4], [6, 4]]","[[3, 3], [3, 3], [3, 3], [3, 3], [3, 3]]","[1, 4, 2, 1, 2]",1.2,13,1,0.036,0.036,0,"[]","control",-1,"False","False","False","False",2,5,3,"implicit-mouselab",15,278815,"default",3
"56","mouselab","False","[]","[[4, 4, 5, 9, 5, 9, 2], [5, 6, 4, 5, 6, 4, 5], [6, 8, 5, 5, 5, 4, 6], [9, 7, 5, 8, 6, 8, 5], [5, 6, 4, 3, 5, 3, 4]]","[[2, 2, 2, 2, 2, 2, 2], [2, 2, 2, 2, 2, 2, 2], [2, 2, 2, 2, 2, 2, 2], [2, 2, 2, 2, 2, 2, 2], [2, 2, 2, 2, 2, 2, 2]]","[3, 3, 1, 1, 2]",0.8,14,6,0.04,0.04,0,"[]","control",-1,"False","False","False","False",7,5,2,"implicit-mouselab",16,285399,"default",3
"57","mouselab","False","[]","[[6, 6, 3, 4, 2, 4, 4], [6, 6, 6, 4, 2, 4, 6], [8, 1, 9, 8, 2, 6, 7], [6, 3, 4, 6, 7, 6, 5], [6, 4, 5, 8, 6, 3, 7]]","[[1, 1, 1, 1, 1, 1, 1], [1, 1, 1, 1, 1, 1, 1], [1, 1, 1, 1, 1, 1, 1], [1, 1, 1, 1, 1, 1, 1], [1, 1, 1, 1, 1, 1, 1]]","[2, 1, 1, 4, 2]",1.2,15,6,0.055,0.055,0,"[]","default",6,"True","False","True","False",7,5,1,"implicit-mouselab",17,289830,"default",3
"58","mouselab","False","[]","[[5, 2, 5, 4, 4, 3, 3], [5, 4, 2, 5, 4, 4, 9]]","[[4, 4, 4, 4, 4, 4, 4], [4, 4, 4, 4, 4, 4, 4]]","[2, 8]",9,16,1,0.036,0.036,0,"[]","default",1,"False","False","True","False",7,2,4,"implicit-mouselab",18,295398,"default",3
"59","mouselab","False","[]","[[9, 6], [6, 5]]","[[4, 4], [4, 4]]","[5, 5]",0,17,0,0.075,0.075,0,"[]","default",0,"True","False","True","False",2,2,4,"implicit-mouselab",19,299998,"default",3
"60","mouselab","False","[]","[[4, 6], [8, 5]]","[[4, 4], [4, 4]]","[6, 4]",1,18,1,0.056,0.056,0,"[]","default",0,"False","False","False","False",2,2,4,"implicit-mouselab",20,307318,"default",3
"61","mouselab","False","[]","[[2, 6, 5, 3, 4, 4, 6], [0, 7, 6, 4, 4, 4, 4], [7, 6, 6, 7, 5, 9, 4], [7, 5, 4, 5, 6, 7, 4], [7, 6, 5, 4, 7, 5, 9]]","[[1, 1, 1, 1, 1, 1, 1], [1, 1, 1, 1, 1, 1, 1], [1, 1, 1, 1, 1, 1, 1], [1, 1, 1, 1, 1, 1, 1], [1, 1, 1, 1, 1, 1, 1]]","[1, 2, 1, 3, 3]",0.8,19,5,0.057,0.057,0,"[]","control",-1,"False","False","False","False",7,5,1,"implicit-mouselab",21,313454,"default",3
"62","mouselab","False","[]","[[6, 1, 3, 6, 4, 3, 4], [2, 3, 8, 7, 7, 5, 8], [4, 5, 5, 7, 8, 7, 3], [6, 4, 3, 6, 5, 6, 5], [2, 8, 4, 5, 3, 7, 6]]","[[3, 3, 3, 3, 3, 3, 3], [3, 3, 3, 3, 3, 3, 3], [3, 3, 3, 3, 3, 3, 3], [3, 3, 3, 3, 3, 3, 3], [3, 3, 3, 3, 3, 3, 3]]","[2, 1, 1, 5, 1]",2.4,20,0,0.05,0.05,0,"[]","default",0,"True","False","True","False",7,5,3,"implicit-mouselab",22,318822,"default",3
"63","mouselab","False","[]","[[6, 7, 5, 4, 3, 5, 3], [9, 5, 4, 4, 6, 3, 7], [7, 3, 3, 8, 5, 1, 10], [3, 5, 6, 7, 3, 5, 5], [7, 8, 5, 2, 6, 3, 6]]","[[1, 1, 1, 1, 1, 1, 1], [1, 1, 1, 1, 1, 1, 1], [1, 1, 1, 1, 1, 1, 1], [1, 1, 1, 1, 1, 1, 1], [1, 1, 1, 1, 1, 1, 1]]","[1, 1, 2, 5, 1]",2.4,21,5,0.038,0.038,0,"[]","control",-1,"False","False","False","False",7,5,1,"implicit-mouselab",23,322510,"default",3
"64","mouselab","False","[]","[[3, 4, 5, 4, 4, 7, 7], [7, 5, 3, 6, 4, 7, 4], [7, 4, 7, 4, 3, 7, 4], [6, 7, 6, 4, 7, 3, 4], [6, 5, 0, 6, 4, 5, 5]]","[[3, 3, 3, 3, 3, 3, 3], [3, 3, 3, 3, 3, 3, 3], [3, 3, 3, 3, 3, 3, 3], [3, 3, 3, 3, 3, 3, 3], [3, 3, 3, 3, 3, 3, 3]]","[1, 3, 1, 4, 1]",1.6,22,2,0.045,0.045,0,"[]","default",2,"True","False","True","False",7,5,3,"implicit-mouselab",24,329102,"default",3
"65","mouselab","False","[]","[[3, 9], [4, 8], [4, 6], [6, 6], [6, 4]]","[[4, 4], [4, 4], [4, 4], [4, 4], [4, 4]]","[1, 2, 1, 2, 4]",1.2,23,1,0.059,0.059,0,"[]","control",-1,"False","False","False","False",2,5,4,"implicit-mouselab",25,331702,"default",3
"66","mouselab","False","[]","[[5, 7], [4, 7]]","[[2, 2], [2, 2]]","[8, 2]",9,24,0,0.048,0.048,0,"[]","default",0,"True","False","True","False",2,2,2,"implicit-mouselab",26,335110,"default",3
"67","mouselab","True","[8, 8, 8, 4, 4, 4, 13, 13, 13, 0, 0, 0, 6, 6, 6, 1, 1, 1, 9, 9, 9, 7, 7, 7, 2, 2, 2, 2, 3, 3, 3, 5, 5, 5, 12, 12, 12, 11, 11, 11, 11, 10, 10, 10, 12]","[[6, 7, 3, 2, 7, 5, 5], [8, 6, 3, 7, 4, 4, 2]]","[[0, 0, 0, 0, 0, 0, 0], [0, 0, 0, 0, 0, 0, 0]]","[1, 9]",16,1,5,0.041,-0.001,0.042,"[8, 4, 13, 0, 6, 1, 9, 7, 2, 3, 5, 12, 11, 10]","control",-1,"False","False","False","False",7,2,3,"implicit-mouselab",4,174831,"default",4
"68","mouselab","True","[9, 9, 9, 5, 5, 5]","[[8, 4], [5, 5], [4, 3], [6, 4], [6, 2]]","[[2, 2], [2, 2], [2, 0], [2, 2], [2, 0]]","[1, 2, 3, 1, 3]",0.8,2,1,0.033,0.029,0.004,"[9, 5]","control",-1,"False","False","False","False",2,5,2,"implicit-mouselab",5,187662,"default",4
"69","mouselab","False","[]","[[5, 8, 3, 4, 8, 5, 4], [6, 5, 4, 5, 3, 3, 4]]","[[3, 3, 3, 3, 3, 3, 3], [3, 3, 3, 3, 3, 3, 3]]","[4, 6]",1,5,5,0.038,0.038,0,"[]","default",5,"True","False","True","False",7,2,3,"implicit-mouselab",7,197247,"default",4
"70","mouselab","False","[]","[[5, 3], [3, 8]]","[[2, 2], [2, 2]]","[5, 5]",0,6,1,0.055,0.055,0,"[]","default",1,"True","False","True","False",2,2,2,"implicit-mouselab",8,203216,"default",4
"71","mouselab","False","[13, 13, 13, 13, 31, 31, 31]","[[5, 6, 6, 4, 9, 3, 5], [5, 4, 5, 5, 6, 8, 6], [7, 8, 4, 6, 5, 6, 6], [5, 5, 4, 9, 4, 4, 1], [7, 4, 5, 6, 5, 2, 6]]","[[2, 2, 2, 2, 2, 2, 2], [2, 2, 2, 2, 2, 2, 0], [2, 2, 2, 2, 2, 2, 2], [2, 2, 2, 2, 2, 2, 2], [2, 2, 2, 0, 2, 2, 2]]","[1, 3, 1, 1, 4]",1.6,7,6,0.054,0.05,0.004,"[13, 31]","control",-1,"False","False","False","False",7,5,2,"implicit-mouselab",9,236927,"default",4
"72","mouselab","False","[6, 34]","[[4, 3, 4, 3, 6, 5, 4], [5, 5, 4, 4, 7, 1, 3], [2, 5, 6, 6, 5, 4, 4], [5, 4, 4, 5, 4, 6, 2], [5, 3, 6, 3, 3, 4, 3]]","[[1, 1, 1, 1, 1, 1, 0], [1, 1, 1, 1, 1, 1, 1], [1, 1, 1, 1, 1, 1, 1], [1, 1, 1, 1, 1, 1, 1], [1, 1, 1, 1, 1, 1, 0]]","[3, 2, 1, 1, 3]",0.8,8,6,0.033,0.031,0.002,"[6, 34]","control",-1,"False","False","False","False",7,5,1,"implicit-mouselab",10,249870,"default",4
"73","mouselab","False","[0]","[[4, 3], [8, 6]]","[[0, 1], [1, 1]]","[9, 1]",16,9,1,0.033,0.032,0.001,"[0]","control",-1,"False","False","False","False",2,2,1,"implicit-mouselab",11,256335,"default",4
"74","mouselab","False","[]","[[9, 5], [4, 4], [6, 2], [8, 1], [7, 4]]","[[1, 1], [1, 1], [1, 1], [1, 1], [1, 1]]","[1, 1, 2, 4, 2]",1.2,10,1,0.025,0.025,0,"[]","default",1,"True","False","True","False",2,5,1,"implicit-mouselab",12,260054,"default",4
"75","mouselab","False","[]","[[7, 4], [4, 4]]","[[2, 2], [2, 2]]","[5, 5]",0,11,0,0.055,0.055,0,"[]","default",0,"True","False","True","False",2,2,2,"implicit-mouselab",13,263038,"default",4
"76","mouselab","False","[1, 1, 1, 1]","[[8, 7], [3, 5], [8, 7], [4, 5], [5, 7]]","[[4, 0], [4, 4], [4, 4], [4, 4], [4, 4]]","[4, 3, 1, 1, 1]",1.6,12,1,0.062,0.058,0.004,"[1]","control",-1,"False","False","False","False",2,5,4,"implicit-mouselab",14,271192,"default",4
"77","mouselab","False","[]","[[0, 2, 6, 3, 5, 4, 6], [4, 5, 7, 5, 4, 3, 4], [6, 5, 7, 4, 6, 6, 5], [6, 4, 7, 4, 5, 5, 4], [6, 8, 3, 3, 2, 5, 7]]","[[4, 4, 4, 4, 4, 4, 4], [4, 4, 4, 4, 4, 4, 4], [4, 4, 4, 4, 4, 4, 4], [4, 4, 4, 4, 4, 4, 4], [4, 4, 4, 4, 4, 4, 4]]","[1, 2, 2, 4, 1]",1.2,13,1,0.046,0.046,0,"[]","default",1,"True","False","True","False",7,5,4,"implicit-mouselab",15,276054,"default",4
"78","mouselab","False","[4, 4]","[[4, 5], [5, 4], [5, 3], [5, 4], [6, 4]]","[[2, 2], [2, 2], [0, 2], [2, 2], [2, 2]]","[1, 1, 3, 2, 3]",0.8,14,0,0.052,0.05,0.002,"[4]","control",-1,"False","False","False","False",2,5,2,"implicit-mouselab",16,281990,"default",4
"79","mouselab","False","[34, 34, 34, 34]","[[2, 4, 5, 2, 4, 4, 6], [6, 6, 5, 4, 2, 3, 7], [2, 3, 4, 7, 6, 7, 7], [4, 6, 5, 6, 4, 4, 7], [5, 0, 3, 4, 4, 6, 6]]","[[4, 4, 4, 4, 4, 4, 4], [4, 4, 4, 4, 4, 4, 4], [4, 4, 4, 4, 4, 4, 4], [4, 4, 4, 4, 4, 4, 4], [4, 4, 4, 4, 4, 4, 0]]","[2, 2, 2, 1, 3]",0.4,15,6,0.065,0.061,0.004,"[34]","control",-1,"False","False","False","False",7,5,4,"implicit-mouselab",17,290591,"default",4
"80","mouselab","False","[10, 10, 10, 10]","[[4, 5, 8, 5, 6, 5, 3], [3, 8, 4, 5, 3, 6, 8], [3, 5, 3, 6, 10, 7, 4], [7, 7, 5, 8, 8, 5, 7], [6, 6, 6, 6, 8, 5, 7]]","[[4, 4, 4, 4, 4, 4, 4], [4, 4, 4, 0, 4, 4, 4], [4, 4, 4, 4, 4, 4, 4], [4, 4, 4, 4, 4, 4, 4], [4, 4, 4, 4, 4, 4, 4]]","[5, 1, 1, 2, 1]",2.4,16,3,0.058,0.054,0.004,"[10]","control",-1,"False","False","False","False",7,5,4,"implicit-mouselab",18,297111,"default",4
"81","mouselab","False","[]","[[5, 6], [6, 5], [8, 5], [6, 4], [3, 4]]","[[3, 3], [3, 3], [3, 3], [3, 3], [3, 3]]","[2, 2, 2, 1, 3]",0.4,17,0,0.053,0.053,0,"[]","default",0,"True","False","True","False",2,5,3,"implicit-mouselab",19,300862,"default",4
"82","mouselab","False","[]","[[5, 7, 7, 4, 7, 5, 1], [6, 5, 2, 7, 6, 5, 4]]","[[3, 3, 3, 3, 3, 3, 3], [3, 3, 3, 3, 3, 3, 3]]","[6, 4]",1,18,1,0.062,0.062,0,"[]","default",1,"True","False","True","False",7,2,3,"implicit-mouselab",20,304966,"default",4
"83","mouselab","False","[2, 2, 2, 13, 13, 13]","[[3, 7, 5, 7, 5, 3, 3], [5, 9, 5, 6, 5, 7, 5]]","[[3, 3, 0, 3, 3, 3, 3], [3, 3, 3, 3, 3, 3, 0]]","[4, 6]",1,19,6,0.042,0.036,0.006,"[2, 13]","control",-1,"False","False","False","False",7,2,3,"implicit-mouselab",21,310191,"default",4
"84","mouselab","False","[0, 0, 0]","[[5, 8], [3, 4]]","[[0, 1], [1, 1]]","[7, 3]",4,20,0,0.044,0.043,0.001,"[0]","control",-1,"False","False","False","False",2,2,1,"implicit-mouselab",22,313902,"default",4
"85","mouselab","False","[]","[[6, 9, 5, 5, 6, 4, 1], [3, 4, 4, 5, 7, 4, 5]]","[[4, 4, 4, 4, 4, 4, 4], [4, 4, 4, 4, 4, 4, 4]]","[4, 6]",1,21,5,0.04,0.04,0,"[]","default",5,"True","False","True","False",7,2,4,"implicit-mouselab",23,316790,"default",4
"86","mouselab","False","[]","[[4, 5, 7, 7, 7, 3, 7], [5, 0, 7, 5, 5, 5, 4], [5, 6, 5, 2, 4, 4, 6], [5, 5, 8, 5, 6, 3, 4], [5, 6, 6, 8, 7, 2, 6]]","[[2, 2, 2, 2, 2, 2, 2], [2, 2, 2, 2, 2, 2, 2], [2, 2, 2, 2, 2, 2, 2], [2, 2, 2, 2, 2, 2, 2], [2, 2, 2, 2, 2, 2, 2]]","[2, 1, 1, 1, 5]",2.4,22,0,0.048,0.048,0,"[]","default",0,"True","False","True","False",7,5,2,"implicit-mouselab",24,325751,"default",4
"87","mouselab","False","[2]","[[4, 6], [5, 3]]","[[1, 1], [0, 1]]","[1, 9]",16,23,0,0.049,0.048,0.001,"[2]","control",-1,"False","False","False","False",2,2,1,"implicit-mouselab",25,329687,"default",4
"88","mouselab","False","[]","[[7, 4], [4, 6]]","[[3, 3], [3, 3]]","[3, 7]",4,24,1,0.054,0.054,0,"[]","default",1,"True","False","True","False",2,2,3,"implicit-mouselab",26,332654,"default",4
"89","mouselab","True","[2, 4, 8]","[[6, 2, 4, 3, 7, 3, 7], [6, 3, 5, 4, 7, 2, 4]]","[[3, 3, 2, 3, 2, 3, 3], [3, 2, 3, 3, 3, 3, 3]]","[4, 6]",1,1,0,0.06,0.057,0.003,"[]","control",-1,"False","False","False","False",7,2,3,"implicit-mouselab",4,58426,"default",5
"90","mouselab","True","[]","[[5, 2], [6, 6], [4, 7], [9, 4], [4, 3]]","[[2, 2], [2, 2], [2, 2], [2, 2], [2, 2]]","[2, 3, 3, 1, 1]",0.8,2,1,0.05,0.05,0,"[]","control",-1,"False","False","False","False",2,5,2,"implicit-mouselab",5,63622,"default",5
"91","mouselab","False","[]","[[7, 4, 6, 3, 3, 4, 4], [4, 4, 5, 5, 7, 5, 8], [4, 4, 3, 6, 6, 4, 5], [5, 5, 4, 7, 6, 4, 5], [4, 6, 7, 7, 7, 5, 4]]","[[3, 3, 3, 3, 3, 3, 3], [3, 3, 3, 3, 3, 3, 3], [3, 3, 3, 3, 3, 3, 3], [3, 3, 3, 3, 3, 3, 3], [3, 3, 3, 3, 3, 3, 3]]","[1, 1, 3, 3, 2]",0.8,5,4,0.06,0.06,0,"[]","control",-1,"False","False","False","False",7,5,3,"implicit-mouselab",7,70037,"default",5
"92","mouselab","False","[]","[[7, 6, 4, 4, 6, 4, 4], [9, 5, 5, 5, 3, 4, 5]]","[[2, 2, 2, 2, 2, 2, 2], [2, 2, 2, 2, 2, 2, 2]]","[1, 9]",16,6,0,0.088,0.088,0,"[]","default",0,"True","False","True","False",7,2,2,"implicit-mouselab",8,78899,"default",5
"93","mouselab","False","[]","[[5, 7], [7, 5]]","[[4, 4], [4, 4]]","[4, 6]",1,7,1,0.058,0.058,0,"[]","default",0,"False","False","False","False",2,2,4,"implicit-mouselab",9,85224,"default",5
"94","mouselab","False","[]","[[6, 6, 3, 3, 8, 4, 5], [2, 5, 4, 3, 4, 3, 2], [3, 5, 3, 7, 6, 9, 6], [6, 4, 7, 5, 3, 2, 4], [8, 6, 3, 7, 5, 6, 6]]","[[4, 4, 4, 4, 4, 4, 4], [4, 4, 4, 4, 4, 4, 4], [4, 4, 4, 4, 4, 4, 4], [4, 4, 4, 4, 4, 4, 4], [4, 4, 4, 4, 4, 4, 4]]","[3, 2, 2, 2, 1]",0.4,8,2,0.04,0.04,0,"[]","default",2,"True","False","True","False",7,5,4,"implicit-mouselab",10,90358,"default",5
"95","mouselab","False","[16, 4, 26, 22, 28, 21, 7, 0]","[[6, 3, 6, 7, 7, 7, 6], [6, 4, 6, 4, 4, 4, 5], [1, 3, 1, 7, 4, 4, 10], [7, 5, 2, 4, 8, 4, 1], [7, 7, 6, 3, 6, 6, 4]]","[[1, 2, 2, 2, 1, 2, 2], [1, 2, 2, 2, 2, 2, 2], [2, 2, 1, 2, 2, 2, 2], [1, 1, 2, 2, 2, 1, 2], [1, 2, 2, 2, 2, 2, 2]]","[1, 4, 3, 1, 1]",1.6,9,3,0.051,0.043,0.008,"[]","default",1,"False","False","False","False",7,5,2,"implicit-mouselab",11,100674,"default",5
"96","mouselab","False","[]","[[4, 3, 6, 7, 6, 2, 4], [7, 4, 9, 1, 3, 2, 5]]","[[3, 3, 3, 3, 3, 3, 3], [3, 3, 3, 3, 3, 3, 3]]","[1, 9]",16,10,2,0.087,0.087,0,"[]","default",2,"True","False","True","False",7,2,3,"implicit-mouselab",12,103097,"default",5
"97","mouselab","False","[]","[[7, 6], [5, 6], [6, 5], [2, 6], [7, 2]]","[[2, 2], [2, 2], [2, 2], [2, 2], [2, 2]]","[1, 2, 3, 2, 2]",0.4,11,0,0.053,0.053,0,"[]","control",-1,"False","False","False","False",2,5,2,"implicit-mouselab",13,106624,"default",5
"98","mouselab","False","[]","[[6, 3], [6, 4]]","[[3, 3], [3, 3]]","[1, 9]",16,12,1,0.039,0.039,0,"[]","default",1,"True","False","True","False",2,2,3,"implicit-mouselab",14,110022,"default",5
"99","mouselab","False","[]","[[7, 4], [4, 4], [5, 5], [5, 3], [5, 4]]","[[3, 3], [3, 3], [3, 3], [3, 3], [3, 3]]","[2, 2, 2, 1, 3]",0.4,13,0,0.052,0.052,0,"[]","default",0,"False","False","True","False",2,5,3,"implicit-mouselab",15,113748,"default",5
"100","mouselab","False","[]","[[7, 5], [2, 4], [5, 5], [8, 8], [5, 6]]","[[1, 1], [1, 1], [1, 1], [1, 1], [1, 1]]","[1, 3, 1, 1, 4]",1.6,14,1,0.054,0.054,0,"[]","control",-1,"False","False","False","False",2,5,1,"implicit-mouselab",16,115587,"default",5
"101","mouselab","False","[]","[[6, 6], [3, 4]]","[[1, 1], [1, 1]]","[3, 7]",4,15,0,0.039,0.039,0,"[]","control",-1,"False","False","False","False",2,2,1,"implicit-mouselab",17,117264,"default",5
"102","mouselab","False","[]","[[4, 7], [6, 7]]","[[4, 4], [4, 4]]","[1, 9]",16,16,1,0.07,0.07,0,"[]","control",-1,"False","False","False","False",2,2,4,"implicit-mouselab",18,118500,"default",5
"103","mouselab","False","[]","[[6, 4, 5, 4, 6, 7, 4], [5, 1, 5, 4, 4, 2, 2], [2, 4, 7, 5, 4, 5, 5], [5, 4, 2, 2, 6, 4, 4], [6, 4, 5, 6, 4, 6, 6]]","[[1, 1, 1, 1, 1, 1, 1], [1, 1, 1, 1, 1, 1, 1], [1, 1, 1, 1, 1, 1, 1], [1, 1, 1, 1, 1, 1, 1], [1, 1, 1, 1, 1, 1, 1]]","[1, 1, 2, 4, 2]",1.2,17,6,0.044,0.044,0,"[]","default",6,"True","False","True","False",7,5,1,"implicit-mouselab",19,122283,"default",5
"104","mouselab","False","[]","[[5, 5, 6, 5, 7, 5, 1], [8, 4, 8, 6, 7, 3, 5]]","[[1, 1, 1, 1, 1, 1, 1], [1, 1, 1, 1, 1, 1, 1]]","[5, 5]",0,18,3,0.055,0.055,0,"[]","control",-1,"False","False","False","False",7,2,1,"implicit-mouselab",20,124022,"default",5
"105","mouselab","False","[]","[[3, 4, 6, 4, 4, 4, 6], [3, 1, 4, 5, 4, 7, 6]]","[[1, 1, 1, 1, 1, 1, 1], [1, 1, 1, 1, 1, 1, 1]]","[4, 6]",1,19,2,0.048,0.048,0,"[]","control",-1,"False","False","False","False",7,2,1,"implicit-mouselab",21,126437,"default",5
"106","mouselab","False","[]","[[2, 4], [5, 4], [7, 9], [4, 3], [3, 4]]","[[4, 4], [4, 4], [4, 4], [4, 4], [4, 4]]","[1, 6, 1, 1, 1]",4,20,1,0.044,0.044,0,"[]","default",1,"True","False","True","False",2,5,4,"implicit-mouselab",22,129256,"default",5
"107","mouselab","False","[]","[[5, 5], [8, 4]]","[[2, 2], [2, 2]]","[3, 7]",4,21,0,0.071,0.071,0,"[]","default",1,"False","False","False","False",2,2,2,"implicit-mouselab",23,131927,"default",5
"108","mouselab","False","[]","[[7, 1, 8, 6, 4, 4, 6], [2, 6, 6, 4, 5, 4, 7]]","[[4, 4, 4, 4, 4, 4, 4], [4, 4, 4, 4, 4, 4, 4]]","[9, 1]",16,22,1,0.015,0.015,0,"[]","control",-1,"False","False","False","False",7,2,4,"implicit-mouselab",24,134099,"default",5
"109","mouselab","False","[]","[[4, 3, 5, 6, 7, 2, 4], [5, 7, 8, 3, 8, 5, 5], [7, 7, 4, 6, 4, 3, 5], [10, 4, 5, 5, 4, 5, 6], [0, 4, 4, 5, 1, 7, 8]]","[[3, 3, 3, 3, 3, 3, 3], [3, 3, 3, 3, 3, 3, 3], [3, 3, 3, 3, 3, 3, 3], [3, 3, 3, 3, 3, 3, 3], [3, 3, 3, 3, 3, 3, 3]]","[1, 1, 6, 1, 1]",4,23,3,0.055,0.055,0,"[]","control",-1,"False","False","False","False",7,5,3,"implicit-mouselab",25,136425,"default",5
"110","mouselab","False","[]","[[4, 4], [6, 4], [1, 6], [5, 2], [5, 5]]","[[2, 2], [2, 2], [2, 2], [2, 2], [2, 2]]","[1, 2, 2, 1, 4]",1.2,24,0,0.043,0.043,0,"[]","control",-1,"False","False","False","False",2,5,2,"implicit-mouselab",26,138403,"default",5
"111","mouselab","True","[3, 3, 12, 11, 12, 11, 6, 5, 4, 4, 5, 6, 0, 7, 1, 8, 1, 8, 7, 0, 2, 13, 10, 9, 2, 9, 10, 13, 12, 0]","[[1, 3, 4, 3, 5, 5, 4], [5, 6, 6, 5, 4, 6, 8]]","[[0, 0, 0, 0, 0, 0, 0], [0, 0, 0, 0, 0, 0, 0]]","[7, 3]",4,1,6,0.052,0.024,0.028,"[3, 12, 11, 4, 5, 6, 1, 8, 7, 0, 2, 9, 10, 13]","control",-1,"False","False","False","False",7,2,2,"implicit-mouselab",4,136569,"default",7
"112","mouselab","True","[5, 5, 5]","[[6, 8], [8, 6], [3, 5], [3, 4], [3, 3]]","[[3, 3], [3, 3], [3, 0], [3, 3], [3, 3]]","[1, 2, 1, 1, 5]",2.4,2,1,0.044,0.041,0.003,"[5]","control",-1,"False","False","False","False",2,5,3,"implicit-mouselab",5,148962,"default",7
"113","mouselab","False","[]","[[5, 4, 5, 2, 8, 7, 8], [6, 4, 3, 6, 2, 6, 4], [6, 4, 4, 4, 3, 6, 1], [4, 5, 5, 2, 6, 5, 6], [3, 5, 3, 4, 7, 5, 5]]","[[1, 1, 1, 1, 1, 1, 1], [1, 1, 1, 1, 1, 1, 1], [1, 1, 1, 1, 1, 1, 1], [1, 1, 1, 1, 1, 1, 1], [1, 1, 1, 1, 1, 1, 1]]","[1, 3, 1, 1, 4]",1.6,5,1,0.045,0.045,0,"[]","default",1,"True","False","True","False",7,5,1,"implicit-mouselab",7,165777,"default",7
"114","mouselab","False","[3, 3, 3, 3]","[[6, 4], [4, 1]]","[[4, 4], [4, 0]]","[3, 7]",4,6,0,0.046,0.042,0.004,"[3]","control",-1,"False","False","False","False",2,2,4,"implicit-mouselab",8,176773,"default",7
"115","mouselab","False","[7, 8, 9, 8, 8, 8, 9, 9, 9, 7, 7, 7]","[[2, 3, 6, 4, 9, 2, 5], [7, 4, 5, 8, 6, 7, 4]]","[[4, 4, 4, 4, 4, 4, 4], [0, 0, 0, 4, 4, 4, 4]]","[6, 4]",1,7,0,0.04,0.028,0.012,"[8, 9, 7]","control",-1,"False","False","False","False",7,2,4,"implicit-mouselab",9,194308,"default",7
"116","mouselab","False","[]","[[4, 7], [6, 4]]","[[3, 3], [3, 3]]","[1, 9]",16,8,0,0.058,0.058,0,"[]","default",0,"True","False","True","False",2,2,3,"implicit-mouselab",10,198721,"default",7
"117","mouselab","False","[10, 13, 7]","[[7, 4, 4, 6, 4, 5, 7], [6, 5, 4, 4, 5, 0, 4]]","[[1, 1, 1, 1, 1, 1, 1], [0, 1, 1, 0, 1, 1, 0]]","[9, 1]",16,9,0,0.069,0.066,0.003,"[10, 13, 7]","default",3,"False","False","False","False",7,2,1,"implicit-mouselab",11,207207,"default",7
"118","mouselab","False","[]","[[2, 9], [6, 8]]","[[4, 4], [4, 4]]","[7, 3]",4,10,0,0.032,0.032,0,"[]","default",0,"True","False","True","False",2,2,4,"implicit-mouselab",12,210833,"default",7
"119","mouselab","False","[28, 28, 28, 34, 34, 34, 31, 31, 31]","[[2, 3, 5, 6, 7, 4, 8], [6, 7, 3, 5, 2, 6, 6], [3, 5, 5, 5, 5, 4, 4], [7, 2, 1, 3, 3, 4, 6], [2, 4, 4, 4, 2, 3, 6]]","[[3, 3, 3, 3, 3, 3, 3], [3, 3, 3, 3, 3, 3, 3], [3, 3, 3, 3, 3, 3, 3], [3, 3, 3, 3, 3, 3, 3], [0, 3, 3, 0, 3, 3, 0]]","[3, 2, 2, 2, 1]",0.4,11,6,0.062,0.053,0.009,"[28, 34, 31]","control",-1,"False","False","False","False",7,5,3,"implicit-mouselab",13,221418,"default",7
"120","mouselab","False","[30, 30, 13, 7]","[[9, 5, 5, 8, 9, 7, 5], [9, 6, 5, 6, 6, 7, 5], [2, 7, 4, 5, 2, 3, 8], [7, 5, 7, 3, 4, 5, 7], [5, 2, 5, 5, 6, 6, 3]]","[[1, 1, 1, 1, 1, 1, 1], [0, 1, 1, 1, 1, 1, 0], [1, 1, 1, 1, 1, 1, 1], [1, 1, 1, 1, 1, 1, 1], [1, 1, 0, 1, 1, 1, 1]]","[6, 1, 1, 1, 1]",4,12,0,0.077,0.074,0.003,"[30, 13, 7]","default",4,"False","False","False","False",7,5,1,"implicit-mouselab",14,237560,"default",7
"121","mouselab","False","[14, 14, 14, 14, 20, 20, 20, 17, 17, 17, 15, 15, 15, 19, 19, 19]","[[6, 6, 4, 7, 5, 6, 7], [5, 3, 2, 5, 4, 6, 7], [4, 6, 5, 3, 5, 3, 4], [3, 2, 5, 6, 3, 3, 1], [1, 9, 5, 8, 4, 3, 5]]","[[3, 3, 3, 3, 3, 3, 3], [3, 3, 3, 3, 3, 3, 3], [0, 0, 3, 0, 3, 0, 0], [3, 3, 3, 3, 3, 3, 3], [3, 3, 3, 3, 3, 3, 3]]","[2, 1, 1, 2, 4]",1.2,13,1,0.061,0.046,0.015,"[14, 20, 17, 15, 19]","default",3,"False","False","False","False",7,5,3,"implicit-mouselab",15,255289,"default",7
"122","mouselab","False","[2, 3, 8, 9]","[[4, 5], [5, 6], [6, 4], [7, 3], [4, 6]]","[[1, 1], [0, 0], [1, 1], [1, 1], [0, 0]]","[1, 6, 1, 1, 1]",4,14,1,0.054,0.05,0.004,"[2, 3, 8, 9]","default",0,"False","False","False","False",2,5,1,"implicit-mouselab",16,266494,"default",7
"123","mouselab","False","[4, 4, 4, 5, 5, 5, 9, 8, 9, 9, 8, 8, 8]","[[3, 5], [6, 4], [6, 7], [6, 5], [5, 7]]","[[3, 3], [3, 3], [0, 0], [3, 3], [0, 0]]","[1, 1, 3, 4, 1]",1.6,15,1,0.057,0.045,0.012,"[4, 5, 9, 8]","control",-1,"False","False","False","False",2,5,3,"implicit-mouselab",17,280017,"default",7
"124","mouselab","False","[1, 1, 0, 0]","[[5, 7], [2, 5]]","[[0, 0], [2, 2]]","[6, 4]",1,16,1,0.062,0.058,0.004,"[1, 0]","control",-1,"False","False","False","False",2,2,2,"implicit-mouselab",18,285377,"default",7
"125","mouselab","False","[10, 10, 10, 6, 6, 6, 0, 0, 0]","[[2, 3, 7, 7, 4, 5, 7], [5, 3, 6, 6, 4, 2, 5]]","[[0, 3, 3, 3, 3, 3, 0], [3, 3, 3, 0, 3, 3, 3]]","[9, 1]",16,17,6,0.068,0.059,0.009,"[10, 6, 0]","default",0,"False","False","False","False",7,2,3,"implicit-mouselab",19,296708,"default",7
"126","mouselab","False","[7, 7, 13, 13, 10, 10, 9, 9, 8, 8, 12, 12, 11, 11]","[[6, 5, 4, 5, 4, 7, 8], [5, 4, 5, 4, 5, 5, 8]]","[[2, 2, 2, 2, 2, 2, 2], [0, 0, 0, 0, 0, 0, 0]]","[1, 9]",16,18,6,0.08,0.066,0.014,"[7, 13, 10, 9, 8, 12, 11]","control",-1,"False","False","False","False",7,2,2,"implicit-mouselab",20,306716,"default",7
"127","mouselab","False","[]","[[4, 7], [4, 6], [5, 4], [4, 3], [5, 3]]","[[4, 4], [4, 4], [4, 4], [4, 4], [4, 4]]","[1, 1, 3, 1, 4]",1.6,19,0,0.047,0.047,0,"[]","default",0,"True","False","True","False",2,5,4,"implicit-mouselab",21,311248,"default",7
"128","mouselab","False","[9, 8, 4, 5]","[[4, 3], [4, 4], [7, 5], [5, 7], [3, 3]]","[[1, 1], [1, 1], [0, 0], [1, 1], [0, 0]]","[1, 3, 1, 3, 2]",0.8,20,0,0.044,0.04,0.004,"[9, 8, 4, 5]","control",-1,"False","False","False","False",2,5,1,"implicit-mouselab",22,318513,"default",7
"129","mouselab","False","[7, 7, 7, 7, 13, 13, 13, 13, 10, 10, 10, 10]","[[1, 5, 6, 4, 7, 7, 5], [8, 6, 4, 6, 4, 8, 3]]","[[4, 4, 4, 4, 4, 4, 4], [0, 4, 4, 0, 4, 4, 0]]","[4, 6]",1,21,0,0.052,0.04,0.012,"[7, 13, 10]","control",-1,"False","False","False","False",7,2,4,"implicit-mouselab",23,327935,"default",7
"130","mouselab","False","[0, 0, 1, 1]","[[7, 6], [6, 1], [6, 7], [2, 5], [3, 5]]","[[0, 0], [2, 2], [2, 2], [2, 2], [2, 2]]","[1, 1, 1, 2, 5]",2.4,22,0,0.038,0.034,0.004,"[0, 1]","control",-1,"False","False","False","False",2,5,2,"implicit-mouselab",24,332497,"default",7
"131","mouselab","False","[0, 0, 6, 6, 3, 3]","[[4, 7, 5, 3, 4, 4, 6], [8, 5, 6, 7, 6, 8, 3], [6, 3, 2, 8, 6, 3, 7], [5, 4, 7, 5, 6, 5, 3], [6, 5, 4, 5, 9, 6, 6]]","[[0, 2, 2, 0, 2, 2, 0], [2, 2, 2, 2, 2, 2, 2], [2, 2, 2, 2, 2, 2, 2], [2, 2, 2, 2, 2, 2, 2], [2, 2, 2, 2, 2, 2, 2]]","[1, 2, 2, 4, 1]",1.2,23,6,0.044,0.038,0.006,"[0, 6, 3]","control",-1,"False","False","False","False",7,5,2,"implicit-mouselab",25,338562,"default",7
"132","mouselab","False","[]","[[5, 4], [5, 4]]","[[2, 2], [2, 2]]","[9, 1]",16,24,0,0.05,0.05,0,"[]","default",0,"True","False","True","False",2,2,2,"implicit-mouselab",26,341447,"default",7
"133","mouselab","True","[2, 2, 18, 18, 23, 23, 19, 19, 16, 16, 15, 15, 14, 14, 17, 17, 20, 20]","[[2, 2, 5, 6, 1, 8, 6], [4, 7, 5, 3, 6, 5, 7], [4, 6, 5, 1, 5, 4, 4], [4, 5, 4, 7, 5, 4, 6], [5, 6, 4, 4, 8, 5, 4]]","[[2, 2, 0, 2, 2, 2, 2], [2, 2, 2, 2, 2, 2, 2], [0, 0, 0, 0, 0, 0, 0], [2, 2, 0, 2, 2, 2, 2], [2, 2, 2, 2, 2, 2, 2]]","[3, 1, 3, 1, 2]",0.8,1,1,0.048,0.03,0.018,"[2, 18, 23, 19, 16, 15, 14, 17, 20]","control",-1,"False","False","False","False",7,5,2,"implicit-mouselab",4,138808,"default",8
"134","mouselab","True","[]","[[2, 3], [8, 9]]","[[3, 3], [3, 3]]","[8, 2]",9,2,1,0.042,0.042,0,"[]","control",-1,"False","False","False","False",2,2,3,"implicit-mouselab",5,145601,"default",8
"135","mouselab","False","[]","[[7, 4, 5, 2, 5, 4, 7], [7, 6, 3, 4, 7, 5, 5]]","[[3, 3, 3, 3, 3, 3, 3], [3, 3, 3, 3, 3, 3, 3]]","[3, 7]",4,5,3,0.034,0.034,0,"[]","control",-1,"False","False","False","False",7,2,3,"implicit-mouselab",7,150393,"default",8
"136","mouselab","False","[]","[[6, 5, 5, 3, 8, 4, 5], [7, 3, 6, 3, 2, 5, 9], [4, 5, 5, 7, 6, 7, 6], [7, 6, 7, 7, 2, 5, 6], [8, 5, 3, 6, 3, 6, 6]]","[[2, 2, 2, 2, 2, 2, 2], [2, 2, 2, 2, 2, 2, 2], [2, 2, 2, 2, 2, 2, 2], [2, 2, 2, 2, 2, 2, 2], [2, 2, 2, 2, 2, 2, 2]]","[1, 3, 2, 2, 2]",0.4,6,0,0.065,0.065,0,"[]","default",0,"True","False","True","False",7,5,2,"implicit-mouselab",8,157785,"default",8
"137","mouselab","False","[]","[[3, 7, 4, 5, 6, 5, 2], [5, 7, 5, 3, 3, 9, 8]]","[[1, 1, 1, 1, 1, 1, 1], [1, 1, 1, 1, 1, 1, 1]]","[6, 4]",1,7,2,0.044,0.044,0,"[]","control",-1,"False","False","False","False",7,2,1,"implicit-mouselab",9,159225,"default",8
"138","mouselab","False","[]","[[5, 6, 6, 4, 6, 8, 6], [5, 5, 5, 5, 4, 9, 7]]","[[3, 3, 3, 3, 3, 3, 3], [3, 3, 3, 3, 3, 3, 3]]","[3, 7]",4,8,5,0.087,0.087,0,"[]","control",-1,"False","False","False","False",7,2,3,"implicit-mouselab",10,160961,"default",8
"139","mouselab","False","[]","[[2, 4], [4, 4]]","[[2, 2], [2, 2]]","[6, 4]",1,9,0,0.028,0.028,0,"[]","default",0,"True","False","True","False",2,2,2,"implicit-mouselab",11,162618,"default",8
"140","mouselab","False","[]","[[6, 5], [4, 8]]","[[1, 1], [1, 1]]","[4, 6]",1,10,0,0.048,0.048,0,"[]","control",-1,"False","False","False","False",2,2,1,"implicit-mouselab",12,163890,"default",8
"141","mouselab","False","[]","[[5, 2], [9, 4], [2, 8], [6, 4], [6, 6]]","[[4, 4], [4, 4], [4, 4], [4, 4], [4, 4]]","[1, 1, 1, 6, 1]",4,11,1,0.044,0.044,0,"[]","control",-1,"False","False","False","False",2,5,4,"implicit-mouselab",13,165306,"default",8
"142","mouselab","False","[]","[[9, 4, 7, 3, 9, 6, 4], [5, 7, 4, 4, 2, 5, 6], [5, 5, 5, 7, 2, 5, 4], [5, 3, 3, 5, 3, 4, 5], [7, 6, 5, 6, 3, 3, 7]]","[[4, 4, 4, 4, 4, 4, 4], [4, 4, 4, 4, 4, 4, 4], [4, 4, 4, 4, 4, 4, 4], [4, 4, 4, 4, 4, 4, 4], [4, 4, 4, 4, 4, 4, 4]]","[1, 4, 2, 1, 2]",1.2,12,2,0.046,0.046,0,"[]","control",-1,"False","False","False","False",7,5,4,"implicit-mouselab",14,166786,"default",8
"143","mouselab","False","[]","[[6, 5], [6, 6], [4, 6], [4, 4], [3, 2]]","[[4, 4], [4, 4], [4, 4], [4, 4], [4, 4]]","[2, 1, 4, 2, 1]",1.2,13,0,0.045,0.045,0,"[]","default",0,"True","False","True","False",2,5,4,"implicit-mouselab",15,168499,"default",8
"144","mouselab","False","[]","[[5, 6], [8, 4], [5, 4], [1, 4], [5, 8]]","[[2, 2], [2, 2], [2, 2], [2, 2], [2, 2]]","[1, 4, 1, 3, 1]",1.6,14,0,0.05,0.05,0,"[]","default",0,"True","False","True","False",2,5,2,"implicit-mouselab",16,170042,"default",8
"145","mouselab","False","[]","[[7, 5], [4, 5]]","[[3, 3], [3, 3]]","[6, 4]",1,15,0,0.058,0.058,0,"[]","control",-1,"False","False","False","False",2,2,3,"implicit-mouselab",17,171787,"default",8
"146","mouselab","False","[]","[[9, 8], [0, 2]]","[[3, 3], [3, 3]]","[7, 3]",4,16,0,0.063,0.063,0,"[]","default",0,"True","False","True","False",2,2,3,"implicit-mouselab",18,173707,"default",8
"147","mouselab","False","[]","[[5, 4], [8, 4], [5, 5], [4, 7], [8, 7]]","[[1, 1], [1, 1], [1, 1], [1, 1], [1, 1]]","[1, 3, 2, 2, 2]",0.4,17,1,0.054,0.054,0,"[]","control",-1,"False","False","False","False",2,5,1,"implicit-mouselab",19,175267,"default",8
"148","mouselab","False","[]","[[1, 4, 5, 8, 6, 6, 6], [3, 5, 7, 4, 5, 6, 5], [6, 4, 6, 6, 6, 5, 5], [7, 4, 2, 5, 7, 4, 4], [6, 5, 9, 6, 4, 4, 6]]","[[2, 2, 2, 2, 2, 2, 2], [2, 2, 2, 2, 2, 2, 2], [2, 2, 2, 2, 2, 2, 2], [2, 2, 2, 2, 2, 2, 2], [2, 2, 2, 2, 2, 2, 2]]","[1, 3, 1, 2, 3]",0.8,18,3,0.054,0.054,0,"[]","default",3,"True","False","True","False",7,5,2,"implicit-mouselab",20,177107,"default",8
"149","mouselab","False","[]","[[5, 5], [6, 4]]","[[4, 4], [4, 4]]","[8, 2]",9,19,1,0.048,0.048,0,"[]","control",-1,"False","False","False","False",2,2,4,"implicit-mouselab",21,178300,"default",8
"150","mouselab","False","[]","[[6, 2, 5, 3, 6, 4, 8], [3, 5, 6, 4, 5, 5, 5], [5, 6, 7, 5, 3, 6, 5], [4, 3, 5, 4, 6, 6, 3], [4, 8, 6, 5, 4, 9, 6]]","[[4, 4, 4, 4, 4, 4, 4], [4, 4, 4, 4, 4, 4, 4], [4, 4, 4, 4, 4, 4, 4], [4, 4, 4, 4, 4, 4, 4], [4, 4, 4, 4, 4, 4, 4]]","[1, 2, 5, 1, 1]",2.4,20,5,0.059,0.059,0,"[]","default",5,"True","False","True","False",7,5,4,"implicit-mouselab",22,179899,"default",8
"151","mouselab","False","[]","[[4, 3, 4, 5, 8, 6, 3], [9, 2, 4, 4, 6, 3, 4]]","[[1, 1, 1, 1, 1, 1, 1], [1, 1, 1, 1, 1, 1, 1]]","[3, 7]",4,21,5,0.039,0.039,0,"[]","control",-1,"False","False","False","False",7,2,1,"implicit-mouselab",23,181556,"default",8
"152","mouselab","False","[]","[[5, 7], [5, 4]]","[[3, 3], [3, 3]]","[9, 1]",16,22,0,0.05,0.05,0,"[]","default",0,"True","False","True","False",2,2,3,"implicit-mouselab",24,183564,"default",8
"153","mouselab","False","[]","[[4, 5, 3, 7, 2, 6, 3], [5, 2, 2, 8, 4, 6, 6], [3, 5, 7, 3, 8, 9, 5], [5, 5, 9, 5, 4, 6, 6], [4, 2, 4, 5, 4, 7, 5]]","[[2, 2, 2, 2, 2, 2, 2], [2, 2, 2, 2, 2, 2, 2], [2, 2, 2, 2, 2, 2, 2], [2, 2, 2, 2, 2, 2, 2], [2, 2, 2, 2, 2, 2, 2]]","[2, 2, 1, 4, 1]",1.2,23,2,0.057,0.057,0,"[]","default",2,"True","False","True","False",7,5,2,"implicit-mouselab",25,185740,"default",8
"154","mouselab","False","[]","[[5, 4, 5, 6, 6, 5, 6], [7, 3, 7, 3, 4, 8, 5], [9, 4, 5, 4, 6, 4, 5], [5, 4, 5, 6, 4, 3, 4], [4, 6, 5, 2, 3, 5, 5]]","[[1, 1, 1, 1, 1, 1, 1], [1, 1, 1, 1, 1, 1, 1], [1, 1, 1, 1, 1, 1, 1], [1, 1, 1, 1, 1, 1, 1], [1, 1, 1, 1, 1, 1, 1]]","[1, 4, 3, 1, 1]",1.6,24,6,0.05,0.05,0,"[]","default",6,"True","False","True","False",7,5,1,"implicit-mouselab",26,188612,"default",8
"155","mouselab","True","[9, 9, 9]","[[5, 4], [6, 4], [4, 8], [6, 5], [4, 8]]","[[3, 3], [3, 3], [3, 3], [3, 3], [3, 0]]","[2, 2, 1, 1, 4]",1.2,1,1,0.061,0.058,0.003,"[9]","control",-1,"False","False","False","False",2,5,3,"implicit-mouselab",4,283257,"default",10
"156","mouselab","True","[5, 5, 2, 2]","[[8, 1, 9, 4, 5, 4, 7], [5, 4, 6, 7, 5, 7, 5]]","[[2, 2, 0, 2, 2, 0, 2], [2, 2, 2, 2, 2, 2, 2]]","[9, 1]",16,2,2,0.087,0.083,0.004,"[5, 2]","control",-1,"False","False","False","False",7,2,2,"implicit-mouselab",5,297142,"default",10
"157","mouselab","False","[2, 2, 2, 2, 5, 5, 5, 5]","[[7, 5, 2, 3, 9, 7, 3], [4, 2, 3, 6, 6, 6, 4]]","[[4, 4, 0, 4, 4, 0, 4], [4, 4, 4, 4, 4, 4, 4]]","[7, 3]",4,5,5,0.067,0.059,0.008,"[2, 5]","control",-1,"False","False","False","False",7,2,4,"implicit-mouselab",7,318145,"default",10
"158","mouselab","False","[3, 3, 3, 4, 4]","[[5, 7], [7, 3], [6, 7], [4, 4], [7, 5]]","[[2, 2], [2, 0], [0, 2], [2, 2], [2, 2]]","[1, 3, 3, 2, 1]",0.8,6,0,0.059,0.055,0.004,"[3, 4]","control",-1,"False","False","False","False",2,5,2,"implicit-mouselab",8,330184,"default",10
"159","mouselab","False","[3, 3, 3]","[[6, 4], [6, 5]]","[[3, 3], [3, 0]]","[5, 5]",0,7,1,0.045,0.042,0.003,"[3]","control",-1,"False","False","False","False",2,2,3,"implicit-mouselab",9,337278,"default",10
"160","mouselab","False","[22, 22, 22, 22, 24, 24, 24, 24, 26, 26, 26, 26]","[[7, 5, 4, 4, 5, 10, 5], [6, 5, 6, 0, 4, 3, 3], [6, 8, 4, 5, 6, 5, 6], [4, 4, 7, 3, 3, 6, 6], [6, 5, 4, 7, 3, 6, 3]]","[[4, 4, 4, 4, 4, 4, 4], [4, 4, 4, 4, 4, 4, 4], [4, 4, 4, 4, 4, 4, 4], [4, 0, 4, 0, 4, 0, 4], [4, 4, 4, 4, 4, 4, 4]]","[1, 1, 2, 5, 1]",2.4,8,5,0.059,0.047,0.012,"[22, 24, 26]","default",3,"False","False","False","False",7,5,4,"implicit-mouselab",10,363096,"default",10
"161","mouselab","False","[7, 10, 12, 8, 11]","[[5, 6, 7, 5, 5, 4, 2], [2, 4, 2, 3, 5, 1, 5]]","[[1, 1, 1, 1, 1, 1, 1], [0, 0, 1, 0, 0, 0, 1]]","[4, 6]",1,9,4,0.05,0.045,0.005,"[7, 10, 12, 8, 11]","default",0,"False","False","False","False",7,2,1,"implicit-mouselab",11,377525,"default",10
"162","mouselab","False","[16, 16, 16, 16]","[[7, 3, 5, 8, 2, 6, 7], [3, 7, 5, 4, 5, 6, 6], [6, 7, 6, 5, 3, 2, 5], [4, 8, 4, 5, 4, 2, 4], [8, 7, 3, 6, 4, 3, 6]]","[[4, 4, 4, 4, 4, 4, 4], [4, 4, 4, 4, 4, 4, 4], [4, 4, 0, 4, 4, 4, 4], [4, 4, 4, 4, 4, 4, 4], [4, 4, 4, 4, 4, 4, 4]]","[2, 2, 2, 2, 2]",0,10,2,0.046,0.042,0.004,"[16]","control",-1,"False","False","False","False",7,5,4,"implicit-mouselab",12,389336,"default",10
"163","mouselab","False","[11, 11, 11]","[[6, 3, 4, 4, 6, 4, 4], [7, 2, 5, 6, 7, 7, 7]]","[[1, 1, 1, 1, 1, 1, 1], [1, 1, 1, 1, 0, 1, 1]]","[3, 7]",4,11,4,0.067,0.066,0.001,"[11]","control",-1,"False","False","False","False",7,2,1,"implicit-mouselab",13,396702,"default",10
"164","mouselab","False","[3, 3, 3, 1, 1, 1]","[[5, 7, 6, 5, 7, 4, 6], [4, 6, 4, 6, 5, 6, 7]]","[[3, 0, 3, 0, 3, 3, 3], [3, 3, 3, 3, 3, 3, 3]]","[7, 3]",4,12,1,0.067,0.061,0.006,"[3, 1]","default",5,"False","False","False","False",7,2,3,"implicit-mouselab",14,409094,"default",10
"165","mouselab","False","[0, 0, 0, 1, 1]","[[6, 5], [4, 6]]","[[0, 0], [2, 2]]","[9, 1]",16,13,0,0.058,0.054,0.004,"[0, 1]","control",-1,"False","False","False","False",2,2,2,"implicit-mouselab",15,415550,"default",10
"166","mouselab","False","[3, 3, 1, 2, 4, 5]","[[6, 5, 6, 5, 5, 6, 6], [1, 6, 4, 6, 8, 5, 3]]","[[1, 0, 0, 0, 0, 0, 1], [1, 1, 1, 1, 1, 1, 1]]","[9, 1]",16,14,2,0.058,0.053,0.005,"[3, 1, 2, 4, 5]","default",5,"False","False","False","False",7,2,1,"implicit-mouselab",16,425822,"default",10
"167","mouselab","False","[22, 22, 22, 22]","[[7, 5, 6, 5, 6, 7, 6], [6, 6, 6, 4, 7, 4, 4], [5, 8, 3, 5, 6, 2, 5], [3, 6, 7, 4, 6, 4, 0], [4, 7, 3, 6, 10, 4, 6]]","[[4, 4, 4, 4, 4, 4, 4], [4, 4, 4, 4, 4, 4, 4], [4, 4, 4, 4, 4, 4, 4], [4, 0, 4, 4, 4, 4, 4], [4, 4, 4, 4, 4, 4, 4]]","[1, 2, 1, 5, 1]",2.4,15,1,0.062,0.058,0.004,"[22]","default",5,"False","False","False","False",7,5,4,"implicit-mouselab",17,434723,"default",10
"168","mouselab","False","[4, 4, 4, 5]","[[3, 5], [6, 4], [3, 5], [5, 3], [7, 7]]","[[1, 1], [1, 1], [0, 0], [1, 1], [1, 1]]","[1, 1, 5, 2, 1]",2.4,16,1,0.047,0.045,0.002,"[4, 5]","control",-1,"False","False","False","False",2,5,1,"implicit-mouselab",18,440231,"default",10
"169","mouselab","False","[7, 7, 6, 6]","[[5, 8], [7, 5], [6, 7], [6, 4], [5, 4]]","[[2, 2], [2, 2], [2, 2], [0, 0], [2, 2]]","[1, 3, 1, 4, 1]",1.6,17,0,0.061,0.057,0.004,"[7, 6]","default",1,"False","False","False","False",2,5,2,"implicit-mouselab",19,447384,"default",10
"170","mouselab","False","[0, 0, 3, 3]","[[4, 2], [1, 5]]","[[0, 2], [2, 0]]","[5, 5]",0,18,1,0.035,0.031,0.004,"[0, 3]","default",0,"False","False","False","False",2,2,2,"implicit-mouselab",20,454299,"default",10
"171","mouselab","False","[2, 2, 2, 2, 5, 5, 5, 5, 3, 3, 3, 3]","[[8, 7, 3, 3, 5, 2, 2], [6, 3, 4, 7, 4, 3, 5]]","[[4, 4, 0, 0, 4, 0, 4], [4, 4, 4, 4, 4, 4, 4]]","[6, 4]",1,19,1,0.054,0.042,0.012,"[2, 5, 3]","default",5,"False","False","False","False",7,2,4,"implicit-mouselab",21,464697,"default",10
"172","mouselab","False","[6, 6, 6, 7, 7, 7]","[[6, 5], [7, 4], [4, 6], [9, 8], [8, 9]]","[[3, 3], [3, 3], [3, 3], [0, 0], [3, 3]]","[1, 2, 2, 3, 2]",0.4,20,0,0.071,0.065,0.006,"[6, 7]","control",-1,"False","False","False","False",2,5,3,"implicit-mouselab",22,471769,"default",10
"173","mouselab","False","[1, 1, 1, 1]","[[4, 7], [5, 4], [4, 6], [4, 5], [6, 7]]","[[1, 0], [1, 1], [1, 1], [1, 1], [1, 1]]","[3, 3, 1, 1, 2]",0.8,21,1,0.058,0.057,0.001,"[1]","control",-1,"False","False","False","False",2,5,1,"implicit-mouselab",23,478702,"default",10
"174","mouselab","False","[8, 8, 8, 9, 9]","[[7, 5], [6, 2], [7, 3], [5, 4], [5, 3]]","[[2, 2], [2, 2], [2, 2], [2, 2], [0, 0]]","[2, 1, 2, 2, 3]",0.4,22,0,0.059,0.055,0.004,"[8, 9]","control",-1,"False","False","False","False",2,5,2,"implicit-mouselab",24,485033,"default",10
"175","mouselab","False","[5, 5, 5, 4, 4, 4]","[[3, 4], [9, 5], [2, 3], [5, 7], [5, 7]]","[[3, 3], [3, 3], [0, 0], [3, 3], [3, 3]]","[3, 1, 4, 1, 1]",1.6,23,1,0.043,0.037,0.006,"[5, 4]","default",0,"False","False","False","False",2,5,3,"implicit-mouselab",25,494617,"default",10
"176","mouselab","False","[3, 3, 3]","[[4, 5, 5, 8, 7, 4, 7], [6, 3, 6, 2, 0, 3, 4]]","[[3, 3, 3, 0, 3, 3, 3], [3, 3, 3, 3, 3, 3, 3]]","[9, 1]",16,24,3,0.074,0.071,0.003,"[3]","default",3,"False","False","True","False",7,2,3,"implicit-mouselab",26,499167,"default",10
"177","mouselab","True","[0]","[[4, 5], [5, 5], [6, 5], [6, 8], [5, 7]]","[[2, 3], [3, 3], [3, 3], [3, 3], [3, 3]]","[1, 3, 2, 3, 1]",0.8,1,1,0.061,0.06,0.001,"[]","control",-1,"False","False","False","False",2,5,3,"implicit-mouselab",4,237352,"default",11
"178","mouselab","True","[]","[[7, 8, 5, 8, 5, 4, 7], [3, 7, 7, 7, 5, 6, 6]]","[[2, 2, 2, 2, 2, 2, 2], [2, 2, 2, 2, 2, 2, 2]]","[4, 6]",1,2,0,0.046,0.046,0,"[]","control",-1,"False","False","False","False",7,2,2,"implicit-mouselab",5,253372,"default",11
"179","mouselab","False","[]","[[8, 8], [5, 4]]","[[1, 1], [1, 1]]","[3, 7]",4,5,1,0.052,0.052,0,"[]","default",1,"True","False","True","False",2,2,1,"implicit-mouselab",7,275074,"default",11
"180","mouselab","False","[]","[[0, 4, 2, 4, 5, 4, 5], [3, 4, 5, 3, 8, 6, 6]]","[[1, 1, 1, 1, 1, 1, 1], [1, 1, 1, 1, 1, 1, 1]]","[8, 2]",9,6,2,0.026,0.026,0,"[]","default",2,"True","False","True","False",7,2,1,"implicit-mouselab",8,281289,"default",11
"181","mouselab","False","[]","[[6, 6, 3, 6, 6, 9, 2], [4, 5, 5, 3, 5, 5, 3], [3, 6, 6, 8, 4, 5, 3], [7, 5, 5, 2, 4, 5, 2], [3, 5, 4, 8, 4, 7, 3]]","[[3, 3, 3, 3, 3, 3, 3], [3, 3, 3, 3, 3, 3, 3], [3, 3, 3, 3, 3, 3, 3], [3, 3, 3, 3, 3, 3, 3], [3, 3, 3, 3, 3, 3, 3]]","[1, 1, 4, 1, 3]",1.6,7,2,0.049,0.049,0,"[]","control",-1,"False","False","False","False",7,5,3,"implicit-mouselab",9,287960,"default",11
"182","mouselab","False","[]","[[3, 6, 5, 6, 6, 5, 5], [1, 6, 6, 7, 4, 6, 1], [5, 6, 3, 4, 5, 8, 7], [7, 3, 6, 2, 6, 4, 6], [5, 6, 5, 4, 3, 5, 5]]","[[3, 3, 3, 3, 3, 3, 3], [3, 3, 3, 3, 3, 3, 3], [3, 3, 3, 3, 3, 3, 3], [3, 3, 3, 3, 3, 3, 3], [3, 3, 3, 3, 3, 3, 3]]","[3, 4, 1, 1, 1]",1.6,8,4,0.048,0.048,0,"[]","control",-1,"False","False","False","False",7,5,3,"implicit-mouselab",10,294002,"default",11
"183","mouselab","False","[]","[[4, 5, 7, 4, 7, 3, 8], [3, 9, 5, 6, 9, 7, 5], [6, 3, 7, 2, 4, 4, 2], [4, 4, 4, 4, 6, 5, 8], [6, 4, 3, 4, 4, 5, 1]]","[[3, 3, 3, 3, 3, 3, 3], [3, 3, 3, 3, 3, 3, 3], [3, 3, 3, 3, 3, 3, 3], [3, 3, 3, 3, 3, 3, 3], [3, 3, 3, 3, 3, 3, 3]]","[3, 1, 1, 4, 1]",1.6,9,0,0.043,0.043,0,"[]","control",-1,"False","False","False","False",7,5,3,"implicit-mouselab",11,298888,"default",11
"184","mouselab","False","[]","[[6, 5, 5, 6, 3, 8, 4], [8, 5, 6, 3, 4, 6, 5], [5, 4, 9, 2, 3, 8, 4], [5, 4, 5, 4, 7, 6, 5], [4, 6, 5, 4, 5, 5, 7]]","[[1, 1, 1, 1, 1, 1, 1], [1, 1, 1, 1, 1, 1, 1], [1, 1, 1, 1, 1, 1, 1], [1, 1, 1, 1, 1, 1, 1], [1, 1, 1, 1, 1, 1, 1]]","[1, 1, 2, 4, 2]",1.2,10,2,0.059,0.059,0,"[]","control",-1,"False","False","False","False",7,5,1,"implicit-mouselab",12,303217,"default",11
"185","mouselab","False","[]","[[7, 7], [5, 6]]","[[4, 4], [4, 4]]","[1, 9]",16,11,1,0.061,0.061,0,"[]","default",1,"True","False","True","False",2,2,4,"implicit-mouselab",13,319518,"default",11
"186","mouselab","False","[0]","[[4, 7], [2, 6]]","[[2, 3], [3, 3]]","[9, 1]",16,12,1,0.069,0.068,0.001,"[]","control",-1,"False","False","False","False",2,2,3,"implicit-mouselab",14,338028,"default",11
"187","mouselab","False","[]","[[4, 6], [5, 4], [5, 6], [5, 4], [2, 5]]","[[1, 1], [1, 1], [1, 1], [1, 1], [1, 1]]","[2, 2, 1, 1, 4]",1.2,13,0,0.036,0.036,0,"[]","default",0,"True","False","True","False",2,5,1,"implicit-mouselab",15,344079,"default",11
"188","mouselab","False","[]","[[4, 4, 4, 5, 7, 7, 5], [6, 9, 5, 1, 6, 4, 7], [6, 6, 7, 5, 5, 5, 9], [3, 5, 4, 7, 4, 7, 6], [5, 3, 9, 4, 7, 5, 5]]","[[4, 4, 4, 4, 4, 4, 4], [4, 4, 4, 4, 4, 4, 4], [4, 4, 4, 4, 4, 4, 4], [4, 4, 4, 4, 4, 4, 4], [4, 4, 4, 4, 4, 4, 4]]","[4, 1, 1, 1, 3]",1.6,14,6,0.057,0.057,0,"[]","control",-1,"False","False","False","False",7,5,4,"implicit-mouselab",16,352633,"default",11
"189","mouselab","False","[]","[[4, 4, 4, 6, 4, 6, 5], [4, 2, 5, 3, 3, 4, 6], [6, 5, 9, 9, 5, 4, 4], [7, 6, 6, 8, 5, 3, 4], [5, 3, 5, 6, 6, 7, 8]]","[[4, 4, 4, 4, 4, 4, 4], [4, 4, 4, 4, 4, 4, 4], [4, 4, 4, 4, 4, 4, 4], [4, 4, 4, 4, 4, 4, 4], [4, 4, 4, 4, 4, 4, 4]]","[1, 1, 6, 1, 1]",4,15,2,0.074,0.074,0,"[]","control",-1,"False","False","False","False",7,5,4,"implicit-mouselab",17,360396,"default",11
"190","mouselab","False","[]","[[7, 5, 4, 5, 6, 8, 4], [4, 5, 8, 8, 4, 6, 7]]","[[2, 2, 2, 2, 2, 2, 2], [2, 2, 2, 2, 2, 2, 2]]","[6, 4]",1,16,4,0.052,0.052,0,"[]","default",6,"False","False","False","False",7,2,2,"implicit-mouselab",18,374038,"default",11
"191","mouselab","False","[]","[[7, 4], [6, 5]]","[[3, 3], [3, 3]]","[9, 1]",16,17,0,0.069,0.069,0,"[]","control",-1,"False","False","False","False",2,2,3,"implicit-mouselab",19,378234,"default",11
"192","mouselab","False","[]","[[7, 4], [3, 5]]","[[1, 1], [1, 1]]","[1, 9]",16,18,0,0.034,0.034,0,"[]","control",-1,"False","False","False","False",2,2,1,"implicit-mouselab",20,381751,"default",11
"193","mouselab","False","[]","[[6, 4], [5, 8], [4, 5], [4, 6], [5, 3]]","[[2, 2], [2, 2], [2, 2], [2, 2], [2, 2]]","[1, 4, 3, 1, 1]",1.6,19,0,0.047,0.047,0,"[]","default",0,"True","False","True","False",2,5,2,"implicit-mouselab",21,387285,"default",11
"194","mouselab","False","[]","[[3, 2], [7, 3], [2, 4], [4, 6], [5, 6]]","[[4, 4], [4, 4], [4, 4], [4, 4], [4, 4]]","[2, 2, 1, 3, 2]",0.4,20,1,0.044,0.044,0,"[]","default",1,"True","False","True","False",2,5,4,"implicit-mouselab",22,391896,"default",11
"195","mouselab","False","[]","[[8, 7], [1, 4]]","[[2, 2], [2, 2]]","[1, 9]",16,21,1,0.043,0.043,0,"[]","default",0,"False","False","False","False",2,2,2,"implicit-mouselab",23,398514,"default",11
"196","mouselab","False","[]","[[3, 6, 2, 4, 3, 4, 5], [6, 4, 3, 4, 2, 4, 5], [3, 8, 6, 2, 7, 7, 8], [5, 8, 5, 6, 3, 6, 4], [6, 7, 5, 5, 5, 5, 5]]","[[4, 4, 4, 4, 4, 4, 4], [4, 4, 4, 4, 4, 4, 4], [4, 4, 4, 4, 4, 4, 4], [4, 4, 4, 4, 4, 4, 4], [4, 4, 4, 4, 4, 4, 4]]","[2, 1, 2, 1, 4]",1.2,22,3,0.042,0.042,0,"[]","default",1,"False","False","False","False",7,5,4,"implicit-mouselab",24,406179,"default",11
"197","mouselab","False","[]","[[4, 6, 7, 5, 5, 4, 4], [6, 7, 4, 6, 3, 5, 6]]","[[2, 2, 2, 2, 2, 2, 2], [2, 2, 2, 2, 2, 2, 2]]","[5, 5]",0,23,2,0.055,0.055,0,"[]","default",0,"False","False","False","False",7,2,2,"implicit-mouselab",25,411607,"default",11
"198","mouselab","False","[]","[[5, 5], [0, 5]]","[[2, 2], [2, 2]]","[8, 2]",9,24,1,0.05,0.05,0,"[]","control",-1,"False","False","False","False",2,2,2,"implicit-mouselab",26,416694,"default",11
"199","mouselab","True","[1, 1, 0, 0, 2, 2, 3, 3]","[[4, 7], [6, 4]]","[[1, 1], [1, 1]]","[6, 4]",1,1,1,0.058,0.05,0.008,"[]","control",-1,"False","False","False","False",2,2,3,"implicit-mouselab",4,153104,"default",12
"200","mouselab","True","[]","[[2, 1, 4, 6, 2, 4, 5], [3, 3, 5, 3, 3, 2, 6], [5, 4, 3, 6, 6, 4, 2], [6, 4, 4, 6, 4, 3, 8], [2, 6, 3, 4, 5, 3, 5]]","[[2, 2, 2, 2, 2, 2, 2], [2, 2, 2, 2, 2, 2, 2], [2, 2, 2, 2, 2, 2, 2], [2, 2, 2, 2, 2, 2, 2], [2, 2, 2, 2, 2, 2, 2]]","[3, 1, 2, 2, 2]",0.4,2,0,0.035,0.035,0,"[]","control",-1,"False","False","False","False",7,5,2,"implicit-mouselab",5,178533,"default",12
"201","mouselab","False","[]","[[4, 8], [5, 6]]","[[2, 2], [2, 2]]","[4, 6]",1,5,1,0.068,0.068,0,"[]","control",-1,"False","False","False","False",2,2,2,"implicit-mouselab",7,191043,"default",12
"202","mouselab","False","[]","[[5, 5, 3, 7, 5, 7, 6], [2, 2, 4, 3, 7, 4, 3], [5, 7, 4, 5, 9, 2, 7], [8, 4, 10, 5, 5, 2, 3], [4, 4, 5, 7, 6, 4, 5]]","[[4, 4, 4, 4, 4, 4, 4], [4, 4, 4, 4, 4, 4, 4], [4, 4, 4, 4, 4, 4, 4], [4, 4, 4, 4, 4, 4, 4], [4, 4, 4, 4, 4, 4, 4]]","[2, 1, 4, 2, 1]",1.2,6,2,0.051,0.051,0,"[]","default",2,"True","False","True","False",7,5,4,"implicit-mouselab",8,210801,"default",12
"203","mouselab","False","[]","[[3, 6, 2, 5, 2, 7, 2], [9, 2, 5, 4, 5, 7, 5], [3, 4, 3, 5, 6, 7, 6], [6, 5, 6, 0, 3, 3, 6], [1, 8, 4, 8, 7, 3, 5]]","[[2, 2, 2, 2, 2, 2, 2], [2, 2, 2, 2, 2, 2, 2], [2, 2, 2, 2, 2, 2, 2], [2, 2, 2, 2, 2, 2, 2], [2, 2, 2, 2, 2, 2, 2]]","[4, 2, 1, 1, 2]",1.2,7,5,0.058,0.058,0,"[]","default",5,"True","False","True","False",7,5,2,"implicit-mouselab",9,222029,"default",12
"204","mouselab","False","[]","[[6, 6, 8, 7, 5, 2, 3], [3, 8, 4, 8, 7, 1, 5]]","[[3, 3, 3, 3, 3, 3, 3], [3, 3, 3, 3, 3, 3, 3]]","[3, 7]",4,8,6,0.044,0.044,0,"[]","control",-1,"False","False","False","False",7,2,3,"implicit-mouselab",10,228984,"default",12
"205","mouselab","False","[]","[[2, 6], [5, 6]]","[[1, 1], [1, 1]]","[8, 2]",9,9,0,0.026,0.026,0,"[]","default",1,"False","False","False","False",2,2,1,"implicit-mouselab",11,238691,"default",12
"206","mouselab","False","[]","[[6, 6], [8, 3]]","[[1, 1], [1, 1]]","[1, 9]",16,10,0,0.078,0.078,0,"[]","control",-1,"False","False","False","False",2,2,1,"implicit-mouselab",12,242958,"default",12
"207","mouselab","False","[]","[[3, 4, 5, 6, 8, 8, 6], [4, 5, 1, 8, 4, 6, 6], [6, 5, 6, 5, 5, 2, 5], [4, 5, 6, 5, 6, 5, 7], [4, 7, 7, 6, 8, 4, 4]]","[[4, 4, 4, 4, 4, 4, 4], [4, 4, 4, 4, 4, 4, 4], [4, 4, 4, 4, 4, 4, 4], [4, 4, 4, 4, 4, 4, 4], [4, 4, 4, 4, 4, 4, 4]]","[1, 3, 1, 2, 3]",0.8,11,3,0.063,0.063,0,"[]","control",-1,"False","False","False","False",7,5,4,"implicit-mouselab",13,248188,"default",12
"208","mouselab","False","[]","[[4, 9, 6, 6, 8, 5, 5], [3, 6, 2, 7, 6, 4, 6]]","[[4, 4, 4, 4, 4, 4, 4], [4, 4, 4, 4, 4, 4, 4]]","[2, 8]",9,12,4,0.064,0.064,0,"[]","default",4,"True","False","True","False",7,2,4,"implicit-mouselab",14,253408,"default",12
"209","mouselab","False","[]","[[4, 5, 6, 5, 5, 4, 6], [6, 2, 3, 3, 5, 5, 5], [5, 3, 6, 8, 5, 6, 4], [8, 3, 4, 5, 3, 4, 6], [7, 4, 6, 6, 4, 7, 7]]","[[4, 4, 4, 4, 4, 4, 4], [4, 4, 4, 4, 4, 4, 4], [4, 4, 4, 4, 4, 4, 4], [4, 4, 4, 4, 4, 4, 4], [4, 4, 4, 4, 4, 4, 4]]","[1, 1, 4, 3, 1]",1.6,13,2,0.051,0.051,0,"[]","default",4,"False","False","False","False",7,5,4,"implicit-mouselab",15,260991,"default",12
"210","mouselab","False","[]","[[8, 6], [6, 3]]","[[4, 4], [4, 4]]","[1, 9]",16,14,1,0.033,0.033,0,"[]","control",-1,"False","False","False","False",2,2,4,"implicit-mouselab",16,265690,"default",12
"211","mouselab","False","[]","[[4, 6], [6, 5]]","[[3, 3], [3, 3]]","[1, 9]",16,15,0,0.058,0.058,0,"[]","default",1,"False","False","False","False",2,2,3,"implicit-mouselab",17,274299,"default",12
"212","mouselab","False","[]","[[8, 5, 5, 7, 9, 4, 6], [6, 2, 4, 3, 5, 6, 6]]","[[1, 1, 1, 1, 1, 1, 1], [1, 1, 1, 1, 1, 1, 1]]","[3, 7]",4,16,3,0.042,0.042,0,"[]","control",-1,"False","False","False","False",7,2,1,"implicit-mouselab",18,277863,"default",12
"213","mouselab","False","[]","[[8, 2], [6, 2], [5, 1], [7, 3], [5, 10]]","[[2, 2], [2, 2], [2, 2], [2, 2], [2, 2]]","[2, 1, 2, 3, 2]",0.4,17,0,0.063,0.063,0,"[]","control",-1,"False","False","False","False",2,5,2,"implicit-mouselab",19,284543,"default",12
"214","mouselab","False","[]","[[4, 2], [5, 8]]","[[2, 2], [2, 2]]","[6, 4]",1,18,0,0.044,0.044,0,"[]","default",0,"True","False","True","False",2,2,2,"implicit-mouselab",20,288681,"default",12
"215","mouselab","False","[]","[[5, 7, 4, 7, 9, 3, 4], [5, 5, 4, 4, 7, 5, 3], [5, 3, 6, 3, 5, 5, 3], [3, 7, 5, 8, 3, 7, 6], [5, 4, 8, 2, 4, 8, 5]]","[[1, 1, 1, 1, 1, 1, 1], [1, 1, 1, 1, 1, 1, 1], [1, 1, 1, 1, 1, 1, 1], [1, 1, 1, 1, 1, 1, 1], [1, 1, 1, 1, 1, 1, 1]]","[1, 1, 2, 1, 5]",2.4,19,5,0.065,0.065,0,"[]","control",-1,"False","False","False","False",7,5,1,"implicit-mouselab",21,293457,"default",12
"216","mouselab","False","[]","[[7, 4, 4, 5, 5, 4, 4], [3, 3, 5, 6, 5, 5, 4], [4, 7, 6, 4, 5, 9, 4], [4, 0, 3, 8, 7, 7, 4], [7, 6, 4, 4, 5, 6, 8]]","[[3, 3, 3, 3, 3, 3, 3], [3, 3, 3, 3, 3, 3, 3], [3, 3, 3, 3, 3, 3, 3], [3, 3, 3, 3, 3, 3, 3], [3, 3, 3, 3, 3, 3, 3]]","[2, 1, 2, 1, 4]",1.2,20,0,0.057,0.057,0,"[]","control",-1,"False","False","False","False",7,5,3,"implicit-mouselab",22,297717,"default",12
"217","mouselab","False","[]","[[1, 2], [6, 5], [6, 3], [8, 5], [9, 6]]","[[3, 3], [3, 3], [3, 3], [3, 3], [3, 3]]","[1, 5, 1, 2, 1]",2.4,21,1,0.046,0.046,0,"[]","default",1,"True","False","True","False",2,5,3,"implicit-mouselab",23,303699,"default",12
"218","mouselab","False","[]","[[6, 7], [5, 5]]","[[2, 2], [2, 2]]","[3, 7]",4,22,0,0.053,0.053,0,"[]","default",0,"True","False","True","False",2,2,2,"implicit-mouselab",24,307083,"default",12
"219","mouselab","False","[]","[[6, 5, 3, 4, 8, 6, 8], [4, 6, 5, 8, 3, 4, 7], [8, 4, 2, 4, 4, 7, 6], [4, 5, 5, 8, 6, 6, 6], [7, 4, 3, 5, 6, 3, 5]]","[[3, 3, 3, 3, 3, 3, 3], [3, 3, 3, 3, 3, 3, 3], [3, 3, 3, 3, 3, 3, 3], [3, 3, 3, 3, 3, 3, 3], [3, 3, 3, 3, 3, 3, 3]]","[1, 1, 3, 2, 3]",0.8,23,1,0.045,0.045,0,"[]","control",-1,"False","False","False","False",7,5,3,"implicit-mouselab",25,312721,"default",12
"220","mouselab","False","[]","[[6, 3], [5, 7], [6, 6], [3, 4], [5, 7]]","[[1, 1], [1, 1], [1, 1], [1, 1], [1, 1]]","[1, 1, 4, 2, 2]",1.2,24,0,0.051,0.051,0,"[]","default",0,"True","False","True","False",2,5,1,"implicit-mouselab",26,316253,"default",12
"221","mouselab","True","[3, 6, 9, 9, 9, 6, 6, 3, 3, 9, 6, 3]","[[6, 4], [3, 4], [5, 5], [4, 5], [5, 5]]","[[3, 3], [3, 0], [3, 3], [0, 3], [3, 0]]","[2, 2, 3, 1, 2]",0.4,1,0,0.047,0.038,0.009,"[9, 6, 3]","control",-1,"False","False","False","False",2,5,3,"implicit-mouselab",4,236318,"default",13
"222","mouselab","True","[4, 8, 8, 4, 4, 2, 2]","[[4, 6, 3, 5, 9, 5, 5], [5, 4, 6, 6, 6, 4, 5]]","[[2, 2, 0, 2, 0, 2, 2], [2, 0, 2, 2, 2, 2, 2]]","[2, 8]",9,2,4,0.066,0.06,0.006,"[8, 4, 2]","control",-1,"False","False","False","False",7,2,2,"implicit-mouselab",5,253735,"default",13
"223","mouselab","False","[22, 22, 22, 22, 9, 9, 9, 9, 25, 25]","[[4, 4, 10, 8, 6, 6, 7], [7, 8, 10, 6, 7, 3, 4], [9, 3, 5, 7, 5, 4, 4], [5, 4, 4, 5, 5, 8, 5], [5, 5, 4, 5, 7, 7, 6]]","[[3, 3, 3, 3, 3, 3, 3], [3, 3, 0, 3, 3, 3, 3], [3, 3, 3, 3, 3, 3, 3], [3, 0, 3, 3, 1, 3, 3], [3, 3, 3, 3, 3, 3, 3]]","[1, 3, 2, 3, 1]",0.8,5,2,0.066,0.058,0.008,"[22, 9]","control",-1,"False","False","False","False",7,5,3,"implicit-mouselab",7,276595,"default",13
"224","mouselab","False","[]","[[5, 3], [3, 6], [4, 5], [3, 3], [4, 6]]","[[1, 1], [1, 1], [1, 1], [1, 1], [1, 1]]","[2, 5, 1, 1, 1]",2.4,6,1,0.05,0.05,0,"[]","default",1,"True","False","True","False",2,5,1,"implicit-mouselab",8,285795,"default",13
"225","mouselab","False","[]","[[5, 3], [7, 4], [5, 5], [7, 4], [3, 3]]","[[4, 4], [4, 4], [4, 4], [4, 4], [4, 4]]","[1, 1, 4, 3, 1]",1.6,7,0,0.056,0.056,0,"[]","default",0,"True","False","True","False",2,5,4,"implicit-mouselab",9,296910,"default",13
"226","mouselab","False","[]","[[4, 4], [2, 7]]","[[1, 1], [1, 1]]","[4, 6]",1,8,1,0.058,0.058,0,"[]","control",-1,"False","False","False","False",2,2,1,"implicit-mouselab",10,310939,"default",13
"227","mouselab","False","[]","[[8, 6, 6, 5, 7, 5, 3], [1, 5, 0, 2, 5, 7, 4], [8, 5, 7, 8, 4, 4, 5], [3, 6, 7, 4, 5, 6, 8], [5, 2, 7, 4, 5, 4, 5]]","[[2, 2, 2, 2, 2, 2, 2], [2, 2, 2, 2, 2, 2, 2], [2, 2, 2, 2, 2, 2, 2], [2, 2, 2, 2, 2, 2, 2], [2, 2, 2, 2, 2, 2, 2]]","[1, 1, 5, 2, 1]",2.4,9,5,0.048,0.048,0,"[]","default",5,"True","False","True","False",7,5,2,"implicit-mouselab",11,316026,"default",13
"228","mouselab","False","[]","[[4, 5, 4, 7, 4, 4, 1], [5, 2, 4, 6, 7, 6, 4]]","[[2, 2, 2, 2, 2, 2, 2], [2, 2, 2, 2, 2, 2, 2]]","[8, 2]",9,10,0,0.042,0.042,0,"[]","default",0,"True","False","True","False",7,2,2,"implicit-mouselab",12,321164,"default",13
"229","mouselab","False","[]","[[7, 8, 5, 4, 5, 5, 5], [6, 6, 5, 6, 5, 7, 3]]","[[4, 4, 4, 4, 4, 4, 4], [4, 4, 4, 4, 4, 4, 4]]","[4, 6]",1,11,1,0.068,0.068,0,"[]","default",1,"True","False","True","False",7,2,4,"implicit-mouselab",13,331233,"default",13
"230","mouselab","False","[]","[[4, 5], [6, 7]]","[[4, 4], [4, 4]]","[9, 1]",16,12,1,0.052,0.052,0,"[]","default",1,"True","False","True","False",2,2,4,"implicit-mouselab",14,337662,"default",13
"231","mouselab","False","[]","[[6, 8], [7, 0]]","[[3, 3], [3, 3]]","[5, 5]",0,13,0,0.065,0.065,0,"[]","control",-1,"False","False","False","False",2,2,3,"implicit-mouselab",15,351875,"default",13
"232","mouselab","False","[]","[[4, 5, 4, 8, 3, 9, 2], [5, 7, 5, 9, 6, 6, 4], [5, 5, 4, 5, 3, 5, 6], [4, 4, 4, 9, 8, 4, 5], [6, 5, 6, 4, 4, 6, 5]]","[[4, 4, 4, 4, 4, 4, 4], [4, 4, 4, 4, 4, 4, 4], [4, 4, 4, 4, 4, 4, 4], [4, 4, 4, 4, 4, 4, 4], [4, 4, 4, 4, 4, 4, 4]]","[1, 3, 1, 3, 2]",0.8,14,4,0.056,0.056,0,"[]","default",4,"True","False","True","False",7,5,4,"implicit-mouselab",16,356640,"default",13
"233","mouselab","False","[]","[[7, 3, 3, 5, 6, 5, 4], [4, 2, 3, 1, 7, 4, 6]]","[[3, 3, 3, 3, 3, 3, 3], [3, 3, 3, 3, 3, 3, 3]]","[3, 7]",4,15,2,0.03,0.03,0,"[]","control",-1,"False","False","False","False",7,2,3,"implicit-mouselab",17,360698,"default",13
"234","mouselab","False","[]","[[3, 4, 9, 2, 4, 4, 4], [5, 5, 6, 4, 3, 4, 5], [2, 5, 3, 6, 3, 4, 8], [7, 5, 6, 5, 5, 6, 6], [7, 6, 7, 3, 6, 7, 6]]","[[3, 3, 3, 3, 3, 3, 3], [3, 3, 3, 3, 3, 3, 3], [3, 3, 3, 3, 3, 3, 3], [3, 3, 3, 3, 3, 3, 3], [3, 3, 3, 3, 3, 3, 3]]","[3, 1, 1, 1, 4]",1.6,16,6,0.055,0.055,0,"[]","control",-1,"False","False","False","False",7,5,3,"implicit-mouselab",18,364485,"default",13
"235","mouselab","False","[]","[[3, 8, 3, 6, 6, 10, 4], [6, 2, 7, 5, 3, 2, 4], [4, 3, 7, 4, 3, 8, 4], [6, 6, 4, 6, 5, 2, 6], [6, 5, 8, 3, 4, 3, 5]]","[[2, 2, 2, 2, 2, 2, 2], [2, 2, 2, 2, 2, 2, 2], [2, 2, 2, 2, 2, 2, 2], [2, 2, 2, 2, 2, 2, 2], [2, 2, 2, 2, 2, 2, 2]]","[4, 1, 1, 1, 3]",1.6,17,2,0.054,0.054,0,"[]","default",4,"False","False","False","False",7,5,2,"implicit-mouselab",19,368563,"default",13
"236","mouselab","False","[]","[[3, 3], [6, 6]]","[[1, 1], [1, 1]]","[2, 8]",9,18,0,0.054,0.054,0,"[]","control",-1,"False","False","False","False",2,2,1,"implicit-mouselab",20,372738,"default",13
"237","mouselab","False","[]","[[7, 6], [5, 4], [8, 4], [8, 4], [2, 5]]","[[2, 2], [2, 2], [2, 2], [2, 2], [2, 2]]","[1, 1, 2, 2, 4]",1.2,19,0,0.052,0.052,0,"[]","default",0,"True","False","True","False",2,5,2,"implicit-mouselab",21,376096,"default",13
"238","mouselab","False","[]","[[4, 3], [4, 4], [3, 6], [3, 4], [6, 3]]","[[4, 4], [4, 4], [4, 4], [4, 4], [4, 4]]","[1, 5, 1, 2, 1]",2.4,20,1,0.04,0.04,0,"[]","control",-1,"False","False","False","False",2,5,4,"implicit-mouselab",22,378344,"default",13
"239","mouselab","False","[]","[[6, 7, 6, 2, 10, 5, 4], [3, 4, 2, 3, 7, 3, 2]]","[[1, 1, 1, 1, 1, 1, 1], [1, 1, 1, 1, 1, 1, 1]]","[5, 5]",0,21,5,0.04,0.04,0,"[]","control",-1,"False","False","False","False",7,2,1,"implicit-mouselab",23,382474,"default",13
"240","mouselab","False","[]","[[3, 3, 4, 8, 5, 4, 2], [5, 3, 2, 5, 4, 6, 6], [3, 7, 1, 5, 5, 2, 9], [5, 4, 6, 8, 3, 4, 6], [3, 1, 2, 2, 4, 5, 4]]","[[3, 3, 3, 3, 3, 3, 3], [3, 3, 3, 3, 3, 3, 3], [3, 3, 3, 3, 3, 3, 3], [3, 3, 3, 3, 3, 3, 3], [3, 3, 3, 3, 3, 3, 3]]","[5, 1, 1, 2, 1]",2.4,22,1,0.034,0.034,0,"[]","control",-1,"False","False","False","False",7,5,3,"implicit-mouselab",24,385263,"default",13
"241","mouselab","False","[]","[[6, 5], [5, 9]]","[[2, 2], [2, 2]]","[2, 8]",9,23,1,0.082,0.082,0,"[]","default",0,"False","False","False","False",2,2,2,"implicit-mouselab",25,391909,"default",13
"242","mouselab","False","[]","[[3, 6], [5, 5]]","[[1, 1], [1, 1]]","[9, 1]",16,24,0,0.032,0.032,0,"[]","control",-1,"False","False","False","False",2,2,1,"implicit-mouselab",26,395835,"default",13
"243","mouselab","True","[3, 3, 3, 3]","[[7, 4], [6, 8]]","[[3, 3], [3, 0]]","[1, 9]",16,1,1,0.076,0.073,0.003,"[3]","control",-1,"False","False","False","False",2,2,3,"implicit-mouselab",4,285704,"default",14
"244","mouselab","True","[2, 2, 5, 5]","[[5, 5, 3, 6, 3, 6, 5], [5, 4, 5, 3, 5, 5, 7], [2, 5, 6, 4, 4, 2, 5], [5, 6, 6, 8, 7, 3, 3], [2, 3, 6, 5, 8, 2, 7]]","[[2, 2, 0, 2, 2, 0, 2], [2, 2, 2, 2, 2, 2, 2], [2, 2, 2, 2, 2, 2, 2], [2, 2, 2, 2, 2, 2, 2], [2, 2, 2, 2, 2, 2, 2]]","[4, 2, 1, 1, 2]",1.2,2,5,0.043,0.039,0.004,"[2, 5]","control",-1,"False","False","False","False",7,5,2,"implicit-mouselab",5,305811,"default",14
"245","mouselab","False","[1, 1, 1, 1, 4, 4, 4, 4]","[[5, 1, 6, 4, 5, 6, 6], [6, 5, 4, 6, 5, 4, 3]]","[[4, 0, 4, 4, 0, 4, 4], [4, 4, 4, 4, 4, 4, 4]]","[8, 2]",9,5,4,0.05,0.042,0.008,"[1, 4]","control",-1,"False","False","False","False",7,2,4,"implicit-mouselab",7,329583,"default",14
"246","mouselab","False","[14, 20]","[[0, 7, 3, 7, 3, 3, 6], [4, 4, 3, 8, 3, 7, 6], [5, 2, 6, 4, 4, 6, 9], [4, 4, 4, 6, 4, 4, 6], [8, 4, 5, 7, 3, 8, 5]]","[[1, 1, 1, 1, 1, 1, 1], [1, 1, 1, 1, 1, 1, 1], [0, 1, 1, 1, 1, 1, 0], [1, 1, 1, 1, 1, 1, 1], [1, 1, 1, 1, 1, 1, 1]]","[1, 1, 4, 1, 3]",1.6,6,6,0.069,0.067,0.002,"[14, 20]","control",-1,"False","False","False","False",7,5,1,"implicit-mouselab",8,348666,"default",14
"247","mouselab","False","[0, 0, 0, 0]","[[5, 4], [6, 3]]","[[0, 4], [4, 4]]","[9, 1]",16,7,0,0.051,0.047,0.004,"[0]","control",-1,"False","False","False","False",2,2,4,"implicit-mouselab",9,364089,"default",14
"248","mouselab","False","[]","[[5, 2], [2, 3]]","[[3, 3], [3, 3]]","[8, 2]",9,8,1,0.022,0.022,0,"[]","default",1,"True","False","True","False",2,2,3,"implicit-mouselab",10,381290,"default",14
"249","mouselab","False","[1, 1, 1, 1]","[[4, 1], [1, 2]]","[[4, 0], [4, 4]]","[7, 3]",4,9,0,0.031,0.027,0.004,"[1]","control",-1,"False","False","False","False",2,2,4,"implicit-mouselab",11,394018,"default",14
"250","mouselab","False","[21, 21, 21, 24, 24, 24, 23, 23, 23]","[[4, 7, 7, 6, 6, 8, 4], [7, 6, 4, 7, 2, 4, 4], [3, 4, 4, 6, 4, 4, 3], [5, 6, 7, 4, 2, 6, 4], [4, 5, 4, 6, 6, 7, 6]]","[[3, 3, 3, 3, 3, 3, 3], [3, 3, 3, 3, 3, 3, 3], [3, 3, 3, 3, 3, 3, 3], [0, 3, 0, 0, 3, 3, 3], [3, 3, 3, 3, 3, 3, 3]]","[1, 2, 1, 5, 1]",2.4,10,2,0.058,0.049,0.009,"[21, 24, 23]","default",6,"False","False","False","False",7,5,3,"implicit-mouselab",12,422201,"default",14
"251","mouselab","False","[0, 3]","[[3, 5], [4, 5]]","[[0, 1], [1, 0]]","[5, 5]",0,11,1,0.05,0.048,0.002,"[0, 3]","control",-1,"False","False","False","False",2,2,1,"implicit-mouselab",13,436341,"default",14
"252","mouselab","False","[2, 2, 2, 2]","[[6, 5], [4, 6], [4, 9], [3, 6], [4, 3]]","[[4, 4], [0, 4], [4, 4], [4, 4], [4, 4]]","[2, 3, 2, 2, 1]",0.4,12,0,0.042,0.038,0.004,"[2]","control",-1,"False","False","False","False",2,5,4,"implicit-mouselab",14,454009,"default",14
"253","mouselab","False","[13, 13, 10, 10, 7, 7]","[[4, 8, 5, 3, 4, 5, 5], [8, 4, 4, 6, 5, 4, 6], [3, 3, 5, 5, 5, 5, 2], [3, 6, 4, 4, 5, 5, 8], [7, 6, 4, 4, 5, 6, 3]]","[[2, 2, 2, 2, 2, 2, 2], [0, 2, 2, 0, 2, 2, 0], [2, 2, 2, 2, 2, 2, 2], [2, 2, 2, 2, 2, 2, 2], [2, 2, 2, 2, 2, 2, 2]]","[1, 5, 2, 1, 1]",2.4,13,0,0.06,0.054,0.006,"[13, 10, 7]","default",1,"False","False","False","False",7,5,2,"implicit-mouselab",15,474817,"default",14
"254","mouselab","False","[21, 21, 32, 32, 23, 23, 34, 34]","[[7, 5, 6, 4, 9, 7, 3], [3, 2, 4, 4, 3, 2, 4], [7, 3, 1, 3, 5, 4, 6], [3, 7, 3, 5, 4, 7, 6], [4, 5, 6, 5, 4, 5, 9]]","[[2, 2, 2, 2, 2, 2, 2], [2, 2, 2, 2, 2, 2, 2], [2, 2, 2, 2, 2, 2, 2], [0, 2, 0, 2, 2, 2, 2], [2, 2, 2, 2, 0, 2, 0]]","[1, 1, 2, 3, 3]",0.8,14,6,0.064,0.056,0.008,"[21, 32, 23, 34]","control",-1,"False","False","False","False",7,5,2,"implicit-mouselab",16,502677,"default",14
"255","mouselab","False","[6, 6, 6]","[[3, 7], [7, 4], [6, 6], [8, 2], [7, 5]]","[[3, 3], [3, 3], [3, 3], [0, 3], [3, 3]]","[1, 2, 1, 4, 2]",1.2,15,0,0.069,0.066,0.003,"[6]","control",-1,"False","False","False","False",2,5,3,"implicit-mouselab",17,514619,"default",14
"256","mouselab","False","[]","[[6, 5], [5, 5]]","[[3, 3], [3, 3]]","[1, 9]",16,16,0,0.051,0.051,0,"[]","default",0,"True","False","True","False",2,2,3,"implicit-mouselab",18,520700,"default",14
"257","mouselab","False","[]","[[5, 3], [4, 5]]","[[4, 4], [4, 4]]","[6, 4]",1,17,1,0.038,0.038,0,"[]","default",1,"True","False","True","False",2,2,4,"implicit-mouselab",19,526511,"default",14
"258","mouselab","False","[21, 24, 26, 23]","[[7, 7, 2, 7, 5, 4, 4], [4, 0, 4, 2, 5, 3, 5], [6, 3, 6, 7, 6, 5, 6], [6, 4, 7, 2, 8, 4, 7], [4, 3, 6, 3, 4, 3, 3]]","[[1, 1, 1, 1, 1, 1, 1], [1, 1, 1, 1, 1, 1, 1], [1, 1, 1, 1, 1, 1, 1], [0, 1, 0, 0, 1, 0, 1], [1, 1, 1, 1, 1, 1, 1]]","[2, 1, 1, 5, 1]",2.4,18,2,0.055,0.051,0.004,"[21, 24, 26, 23]","default",2,"False","False","True","False",7,5,1,"implicit-mouselab",20,545761,"default",14
"259","mouselab","False","[]","[[5, 8, 2, 5, 5, 5, 3], [7, 4, 6, 4, 3, 7, 3], [6, 5, 5, 4, 3, 6, 7], [1, 6, 6, 3, 4, 9, 4], [4, 7, 7, 5, 6, 5, 4]]","[[1, 1, 1, 1, 1, 1, 1], [1, 1, 1, 1, 1, 1, 1], [1, 1, 1, 1, 1, 1, 1], [1, 1, 1, 1, 1, 1, 1], [1, 1, 1, 1, 1, 1, 1]]","[2, 1, 2, 1, 4]",1.2,19,6,0.043,0.043,0,"[]","default",6,"True","False","True","False",7,5,1,"implicit-mouselab",21,554022,"default",14
"260","mouselab","False","[4, 4, 2, 2]","[[3, 4, 8, 9, 5, 7, 4], [7, 5, 5, 5, 4, 4, 7]]","[[2, 2, 0, 2, 0, 2, 2], [2, 2, 2, 2, 2, 2, 2]]","[7, 3]",4,20,2,0.071,0.067,0.004,"[4, 2]","default",1,"False","False","False","False",7,2,2,"implicit-mouselab",22,572065,"default",14
"261","mouselab","False","[0, 3, 6]","[[6, 5, 6, 4, 6, 0, 8], [5, 5, 5, 5, 5, 3, 5], [8, 6, 3, 6, 1, 6, 7], [3, 6, 7, 5, 4, 8, 6], [3, 1, 5, 4, 7, 4, 6]]","[[0, 1, 1, 0, 1, 1, 0], [1, 1, 1, 1, 1, 1, 1], [1, 1, 1, 1, 1, 1, 1], [1, 1, 1, 1, 1, 1, 1], [1, 1, 1, 1, 1, 1, 1]]","[3, 3, 1, 2, 1]",0.8,21,6,0.064,0.061,0.003,"[0, 3, 6]","control",-1,"False","False","False","False",7,5,1,"implicit-mouselab",23,586108,"default",14
"262","mouselab","False","[]","[[6, 7], [3, 4]]","[[2, 2], [2, 2]]","[2, 8]",9,22,0,0.036,0.036,0,"[]","default",0,"True","False","True","False",2,2,2,"implicit-mouselab",24,591539,"default",14
"263","mouselab","False","[]","[[4, 4], [4, 7], [8, 3], [4, 2], [7, 3]]","[[3, 3], [3, 3], [3, 3], [3, 3], [3, 3]]","[3, 1, 1, 2, 3]",0.8,23,1,0.035,0.035,0,"[]","default",1,"True","False","True","False",2,5,3,"implicit-mouselab",25,597125,"default",14
"264","mouselab","False","[7, 7, 9, 9, 13, 13]","[[5, 3, 8, 3, 5, 5, 5], [5, 4, 6, 7, 6, 7, 4]]","[[2, 2, 2, 2, 2, 2, 2], [0, 2, 0, 2, 2, 2, 0]]","[2, 8]",9,24,4,0.058,0.052,0.006,"[7, 9, 13]","control",-1,"False","False","False","False",7,2,2,"implicit-mouselab",26,612056,"default",14
"265","mouselab","True","[8, 11, 13, 7]","[[5, 3, 5, 3, 8, 4, 7], [1, 6, 7, 4, 3, 7, 7]]","[[2, 2, 2, 2, 2, 2, 2], [1, 1, 2, 2, 1, 2, 1]]","[2, 8]",9,1,3,0.038,0.034,0.004,"[]","control",-1,"False","False","False","False",7,2,2,"implicit-mouselab",4,201005,"default",15
"266","mouselab","True","[6, 7, 3, 2]","[[3, 7], [7, 5], [5, 1], [8, 5], [5, 5]]","[[3, 3], [2, 2], [3, 3], [2, 2], [3, 3]]","[2, 3, 1, 3, 1]",0.8,2,0,0.061,0.057,0.004,"[]","control",-1,"False","False","False","False",2,5,3,"implicit-mouselab",5,223480,"default",15
"267","mouselab","False","[]","[[6, 5], [3, 6]]","[[1, 1], [1, 1]]","[1, 9]",16,5,1,0.059,0.059,0,"[]","default",1,"True","False","True","False",2,2,1,"implicit-mouselab",7,235730,"default",15
"268","mouselab","False","[0, 1, 1, 0, 0, 1, 1, 0]","[[8, 5], [8, 5]]","[[0, 0], [4, 4]]","[6, 4]",1,6,0,0.08,0.072,0.008,"[1, 0]","control",-1,"False","False","False","False",2,2,4,"implicit-mouselab",8,257848,"default",15
"269","mouselab","False","[0, 0, 2, 2, 4, 4, 6, 6]","[[4, 3, 3, 4, 3, 9, 6], [5, 3, 4, 4, 8, 4, 2]]","[[0, 2, 0, 2, 0, 2, 0], [2, 2, 2, 2, 2, 2, 2]]","[7, 3]",4,7,6,0.048,0.04,0.008,"[0, 2, 4, 6]","control",-1,"False","False","False","False",7,2,2,"implicit-mouselab",9,276963,"default",15
"270","mouselab","False","[]","[[8, 5], [5, 5], [6, 2], [4, 7], [5, 7]]","[[2, 2], [2, 2], [2, 2], [2, 2], [2, 2]]","[4, 1, 1, 3, 1]",1.6,8,1,0.055,0.055,0,"[]","default",1,"True","False","True","False",2,5,2,"implicit-mouselab",10,286418,"default",15
"271","mouselab","False","[]","[[6, 6, 9, 8, 5, 7, 5], [6, 5, 5, 3, 4, 6, 4]]","[[3, 3, 3, 3, 3, 3, 3], [3, 3, 3, 3, 3, 3, 3]]","[5, 5]",0,9,3,0.055,0.055,0,"[]","control",-1,"False","False","False","False",7,2,3,"implicit-mouselab",11,294599,"default",15
"272","mouselab","False","[]","[[6, 5], [6, 5]]","[[4, 4], [4, 4]]","[5, 5]",0,10,0,0.06,0.06,0,"[]","default",0,"True","False","True","False",2,2,4,"implicit-mouselab",12,300589,"default",15
"273","mouselab","False","[]","[[5, 5, 3, 4, 5, 5, 5], [3, 0, 5, 6, 3, 6, 5], [5, 3, 8, 7, 5, 4, 6], [5, 4, 6, 8, 5, 4, 4], [6, 5, 4, 5, 4, 5, 7]]","[[3, 3, 3, 3, 3, 3, 3], [3, 3, 3, 3, 3, 3, 3], [3, 3, 3, 3, 3, 3, 3], [3, 3, 3, 3, 3, 3, 3], [3, 3, 3, 3, 3, 3, 3]]","[1, 2, 5, 1, 1]",2.4,11,3,0.064,0.064,0,"[]","default",3,"True","False","True","False",7,5,3,"implicit-mouselab",13,305199,"default",15
"274","mouselab","False","[7, 7, 7, 7, 10, 10, 10, 10, 13, 13, 13, 13]","[[5, 7, 8, 4, 5, 6, 6], [3, 7, 4, 5, 6, 3, 9]]","[[4, 4, 4, 4, 4, 4, 4], [0, 4, 4, 0, 4, 4, 0]]","[3, 7]",4,12,6,0.081,0.069,0.012,"[7, 10, 13]","control",-1,"False","False","False","False",7,2,4,"implicit-mouselab",14,318902,"default",15
"275","mouselab","False","[]","[[3, 8, 4, 5, 9, 6, 8], [6, 4, 5, 5, 4, 5, 1], [6, 7, 2, 6, 5, 1, 5], [7, 2, 5, 4, 6, 4, 7], [6, 1, 4, 3, 3, 6, 6]]","[[1, 1, 1, 1, 1, 1, 1], [1, 1, 1, 1, 1, 1, 1], [1, 1, 1, 1, 1, 1, 1], [1, 1, 1, 1, 1, 1, 1], [1, 1, 1, 1, 1, 1, 1]]","[1, 4, 2, 2, 1]",1.2,13,1,0.043,0.043,0,"[]","default",1,"True","False","True","False",7,5,1,"implicit-mouselab",15,322294,"default",15
"276","mouselab","False","[]","[[3, 5], [2, 5]]","[[3, 3], [3, 3]]","[9, 1]",16,14,0,0.029,0.029,0,"[]","default",0,"True","False","True","False",2,2,3,"implicit-mouselab",16,328175,"default",15
"277","mouselab","False","[]","[[5, 6, 5, 7, 6, 6, 8], [5, 3, 5, 4, 3, 4, 6], [7, 3, 5, 3, 5, 6, 4], [1, 6, 7, 6, 7, 4, 3], [7, 7, 7, 2, 4, 7, 6]]","[[1, 1, 1, 1, 1, 1, 1], [1, 1, 1, 1, 1, 1, 1], [1, 1, 1, 1, 1, 1, 1], [1, 1, 1, 1, 1, 1, 1], [1, 1, 1, 1, 1, 1, 1]]","[2, 1, 4, 2, 1]",1.2,15,4,0.053,0.053,0,"[]","default",4,"True","False","True","False",7,5,1,"implicit-mouselab",17,333256,"default",15
"278","mouselab","False","[]","[[2, 6, 5, 7, 3, 5, 8], [8, 4, 8, 8, 5, 5, 2]]","[[4, 4, 4, 4, 4, 4, 4], [4, 4, 4, 4, 4, 4, 4]]","[8, 2]",9,16,3,0.072,0.072,0,"[]","default",3,"True","False","True","False",7,2,4,"implicit-mouselab",18,336847,"default",15
"279","mouselab","False","[]","[[2, 2, 4, 3, 3, 7, 6], [6, 6, 8, 6, 5, 4, 7], [6, 7, 8, 5, 9, 3, 7], [4, 4, 5, 3, 4, 5, 4], [6, 6, 7, 5, 2, 5, 6]]","[[3, 3, 3, 3, 3, 3, 3], [3, 3, 3, 3, 3, 3, 3], [3, 3, 3, 3, 3, 3, 3], [3, 3, 3, 3, 3, 3, 3], [3, 3, 3, 3, 3, 3, 3]]","[1, 1, 6, 1, 1]",4,17,6,0.065,0.065,0,"[]","default",6,"True","False","True","False",7,5,3,"implicit-mouselab",19,340955,"default",15
"280","mouselab","False","[8, 8, 9, 9]","[[8, 6], [4, 6], [2, 8], [4, 1], [6, 7]]","[[2, 2], [2, 2], [2, 2], [2, 2], [0, 0]]","[1, 2, 1, 1, 5]",2.4,18,1,0.062,0.058,0.004,"[8, 9]","control",-1,"False","False","False","False",2,5,2,"implicit-mouselab",20,351034,"default",15
"281","mouselab","False","[8, 8, 8, 9, 9, 9]","[[6, 4], [4, 7], [7, 5], [7, 5], [3, 6]]","[[3, 3], [3, 3], [3, 3], [3, 3], [0, 0]]","[1, 1, 1, 3, 4]",1.6,19,1,0.055,0.049,0.006,"[8, 9]","control",-1,"False","False","False","False",2,5,3,"implicit-mouselab",21,358781,"default",15
"282","mouselab","False","[0, 2, 4, 6, 13, 7, 11, 27, 25, 21]","[[7, 6, 6, 8, 7, 5, 10], [2, 4, 5, 4, 3, 5, 5], [5, 7, 5, 5, 3, 7, 5], [4, 5, 6, 6, 5, 4, 7], [4, 6, 2, 6, 5, 7, 6]]","[[0, 1, 0, 1, 0, 1, 0], [0, 1, 1, 1, 0, 1, 0], [1, 1, 1, 1, 1, 1, 1], [0, 1, 1, 1, 0, 1, 0], [1, 1, 1, 1, 1, 1, 1]]","[3, 3, 1, 2, 1]",0.8,20,6,0.07,0.06,0.01,"[0, 2, 4, 6, 13, 7, 11, 27, 25, 21]","control",-1,"False","False","False","False",7,5,1,"implicit-mouselab",22,383611,"default",15
"283","mouselab","False","[4, 4, 5, 5]","[[7, 8], [7, 3], [8, 5], [5, 7], [7, 3]]","[[2, 2], [2, 2], [0, 0], [2, 2], [2, 2]]","[1, 2, 3, 1, 3]",0.8,21,0,0.071,0.067,0.004,"[4, 5]","control",-1,"False","False","False","False",2,5,2,"implicit-mouselab",23,392655,"default",15
"284","mouselab","False","[]","[[3, 4, 8, 7, 5, 4, 3], [3, 3, 4, 8, 3, 5, 7], [4, 1, 3, 3, 5, 6, 4], [7, 4, 7, 6, 6, 5, 1], [8, 7, 6, 5, 8, 7, 5]]","[[2, 2, 2, 2, 2, 2, 2], [2, 2, 2, 2, 2, 2, 2], [2, 2, 2, 2, 2, 2, 2], [2, 2, 2, 2, 2, 2, 2], [2, 2, 2, 2, 2, 2, 2]]","[1, 2, 1, 2, 4]",1.2,22,0,0.059,0.059,0,"[]","default",0,"True","False","True","False",7,5,2,"implicit-mouselab",24,398161,"default",15
"285","mouselab","False","[0, 1, 2, 3]","[[2, 4], [7, 5]]","[[0, 0], [0, 0]]","[6, 4]",1,23,0,0.04,0.036,0.004,"[0, 1, 2, 3]","control",-1,"False","False","False","False",2,2,1,"implicit-mouselab",25,430500,"default",15
"286","mouselab","False","[2, 2, 2, 2, 3, 3, 3, 3]","[[2, 7], [6, 4]]","[[4, 4], [0, 0]]","[1, 9]",16,24,0,0.056,0.048,0.008,"[2, 3]","control",-1,"False","False","False","False",2,2,4,"implicit-mouselab",26,439928,"default",15
"287","mouselab","True","[1, 1, 3, 3, 3, 1, 4, 4, 4, 8, 8, 8, 12, 12, 12, 13, 12, 12, 13, 13]","[[7, 4, 5, 5, 3, 2, 6], [6, 3, 8, 6, 8, 8, 4]]","[[3, 0, 3, 0, 0, 3, 3], [3, 0, 3, 3, 3, 0, 0]]","[7, 3]",4,1,5,0.038,0.02,0.018,"[3, 1, 4, 8, 12, 13]","control",-1,"False","False","False","False",7,2,3,"implicit-mouselab",4,188941,"default",16
"288","mouselab","True","[0, 0, 0, 3, 3, 3, 5, 5, 5, 7, 7, 4, 4, 1, 1, 9, 9]","[[6, 5], [6, 6], [7, 4], [6, 5], [7, 3]]","[[0, 0], [2, 0], [0, 0], [2, 0], [2, 0]]","[4, 1, 3, 1, 1]",1.6,2,1,0.046,0.032,0.014,"[0, 3, 5, 7, 4, 1, 9]","control",-1,"False","False","False","False",2,5,2,"implicit-mouselab",5,205316,"default",16
"289","mouselab","False","[]","[[6, 7, 2, 5, 8, 6, 3], [4, 3, 2, 1, 5, 9, 6]]","[[4, 4, 4, 4, 4, 4, 4], [4, 4, 4, 4, 4, 4, 4]]","[9, 1]",16,5,5,0.063,0.063,0,"[]","default",5,"True","False","True","False",7,2,4,"implicit-mouselab",7,235436,"default",16
"290","mouselab","False","[0, 0, 3, 3, 5, 5, 7, 7, 9, 9]","[[2, 8], [7, 6], [6, 3], [4, 4], [3, 5]]","[[0, 2], [2, 0], [2, 0], [2, 0], [2, 0]]","[5, 1, 1, 1, 2]",2.4,6,1,0.063,0.053,0.01,"[0, 3, 5, 7, 9]","control",-1,"False","False","False","False",2,5,2,"implicit-mouselab",8,246292,"default",16
"291","mouselab","False","[2, 2, 2, 2]","[[2, 9, 6, 5, 5, 5, 6], [7, 2, 5, 8, 6, 4, 2]]","[[4, 4, 0, 4, 4, 4, 4], [4, 4, 4, 4, 4, 4, 4]]","[5, 5]",0,7,2,0.055,0.051,0.004,"[2]","control",-1,"False","False","False","False",7,2,4,"implicit-mouselab",9,252924,"default",16
"292","mouselab","False","[]","[[3, 3, 6, 5, 6, 5, 8], [6, 4, 2, 3, 4, 6, 4]]","[[1, 1, 1, 1, 1, 1, 1], [1, 1, 1, 1, 1, 1, 1]]","[2, 8]",9,8,4,0.044,0.044,0,"[]","default",4,"True","False","True","False",7,2,1,"implicit-mouselab",10,260588,"default",16
"293","mouselab","False","[]","[[5, 2, 5, 6, 5, 4, 5], [6, 2, 5, 5, 3, 4, 6], [5, 3, 3, 4, 4, 7, 6], [3, 5, 7, 3, 4, 6, 6], [3, 4, 6, 3, 2, 8, 3]]","[[4, 4, 4, 4, 4, 4, 4], [4, 4, 4, 4, 4, 4, 4], [4, 4, 4, 4, 4, 4, 4], [4, 4, 4, 4, 4, 4, 4], [4, 4, 4, 4, 4, 4, 4]]","[1, 5, 2, 1, 1]",2.4,9,2,0.049,0.049,0,"[]","default",2,"True","False","True","False",7,5,4,"implicit-mouselab",11,267732,"default",16
"294","mouselab","False","[]","[[6, 7, 4, 3, 4, 3, 2], [7, 6, 6, 6, 4, 5, 9], [6, 6, 3, 6, 2, 5, 5], [1, 4, 5, 7, 6, 2, 6], [6, 6, 5, 4, 6, 7, 10]]","[[4, 4, 4, 4, 4, 4, 4], [4, 4, 4, 4, 4, 4, 4], [4, 4, 4, 4, 4, 4, 4], [4, 4, 4, 4, 4, 4, 4], [4, 4, 4, 4, 4, 4, 4]]","[5, 1, 1, 2, 1]",2.4,10,0,0.051,0.051,0,"[]","default",0,"True","False","True","False",7,5,4,"implicit-mouselab",12,271436,"default",16
"295","mouselab","False","[0, 0]","[[4, 5], [5, 3]]","[[0, 2], [2, 2]]","[6, 4]",1,11,1,0.042,0.04,0.002,"[0]","control",-1,"False","False","False","False",2,2,2,"implicit-mouselab",13,279324,"default",16
"296","mouselab","False","[]","[[6, 3, 5, 3, 5, 7, 7], [5, 6, 5, 5, 6, 3, 5], [6, 5, 4, 6, 5, 7, 8], [6, 5, 5, 5, 6, 5, 6], [2, 4, 5, 5, 4, 6, 5]]","[[1, 1, 1, 1, 1, 1, 1], [1, 1, 1, 1, 1, 1, 1], [1, 1, 1, 1, 1, 1, 1], [1, 1, 1, 1, 1, 1, 1], [1, 1, 1, 1, 1, 1, 1]]","[1, 3, 3, 1, 2]",0.8,12,2,0.047,0.047,0,"[]","default",2,"True","False","True","False",7,5,1,"implicit-mouselab",14,281869,"default",16
"297","mouselab","False","[]","[[4, 6], [7, 4], [7, 6], [6, 5], [4, 6]]","[[1, 1], [1, 1], [1, 1], [1, 1], [1, 1]]","[1, 1, 2, 5, 1]",2.4,13,1,0.053,0.053,0,"[]","default",1,"True","False","True","False",2,5,1,"implicit-mouselab",15,284948,"default",16
"298","mouselab","False","[]","[[4, 9, 8, 2, 8, 9, 4], [0, 6, 5, 5, 6, 3, 4]]","[[2, 2, 2, 2, 2, 2, 2], [2, 2, 2, 2, 2, 2, 2]]","[1, 9]",16,14,4,0.062,0.062,0,"[]","default",4,"True","False","True","False",7,2,2,"implicit-mouselab",16,287764,"default",16
"299","mouselab","False","[1, 1, 1, 1, 3, 3, 3, 3]","[[4, 4], [2, 6]]","[[4, 0], [4, 0]]","[2, 8]",9,15,0,0.024,0.016,0.008,"[1, 3]","control",-1,"False","False","False","False",2,2,4,"implicit-mouselab",17,302900,"default",16
"300","mouselab","False","[]","[[5, 8, 3, 4, 5, 7, 6], [7, 7, 6, 7, 5, 4, 5], [5, 3, 5, 4, 5, 1, 5], [7, 2, 4, 3, 5, 4, 5], [6, 5, 7, 5, 5, 3, 6]]","[[1, 1, 1, 1, 1, 1, 1], [1, 1, 1, 1, 1, 1, 1], [1, 1, 1, 1, 1, 1, 1], [1, 1, 1, 1, 1, 1, 1], [1, 1, 1, 1, 1, 1, 1]]","[1, 3, 2, 1, 3]",0.8,16,4,0.05,0.05,0,"[]","default",4,"True","False","True","False",7,5,1,"implicit-mouselab",18,306900,"default",16
"301","mouselab","False","[]","[[4, 4], [2, 3]]","[[3, 3], [3, 3]]","[3, 7]",4,17,1,0.033,0.033,0,"[]","control",-1,"False","False","False","False",2,2,3,"implicit-mouselab",19,309396,"default",16
"302","mouselab","False","[]","[[2, 5], [5, 4]]","[[3, 3], [3, 3]]","[7, 3]",4,18,1,0.047,0.047,0,"[]","control",-1,"False","False","False","False",2,2,3,"implicit-mouselab",20,311060,"default",16
"303","mouselab","False","[]","[[7, 6], [4, 4]]","[[3, 3], [3, 3]]","[4, 6]",1,19,1,0.048,0.048,0,"[]","control",-1,"False","False","False","False",2,2,3,"implicit-mouselab",21,312724,"default",16
"304","mouselab","False","[]","[[3, 4, 3, 5, 4, 7, 4], [5, 5, 8, 3, 5, 5, 5], [7, 3, 5, 1, 7, 5, 7], [3, 7, 5, 4, 5, 7, 5], [4, 6, 4, 2, 8, 3, 8]]","[[2, 2, 2, 2, 2, 2, 2], [2, 2, 2, 2, 2, 2, 2], [2, 2, 2, 2, 2, 2, 2], [2, 2, 2, 2, 2, 2, 2], [2, 2, 2, 2, 2, 2, 2]]","[2, 1, 4, 2, 1]",1.2,20,1,0.045,0.045,0,"[]","control",-1,"False","False","False","False",7,5,2,"implicit-mouselab",22,318508,"default",16
"305","mouselab","False","[]","[[4, 5], [3, 4], [4, 5], [6, 8], [6, 2]]","[[3, 3], [3, 3], [3, 3], [3, 3], [3, 3]]","[1, 1, 1, 5, 2]",2.4,21,0,0.053,0.053,0,"[]","default",0,"True","False","True","False",2,5,3,"implicit-mouselab",23,321708,"default",16
"306","mouselab","False","[]","[[6, 4], [7, 5], [4, 4], [3, 6], [7, 7]]","[[1, 1], [1, 1], [1, 1], [1, 1], [1, 1]]","[1, 1, 2, 5, 1]",2.4,22,1,0.054,0.054,0,"[]","control",-1,"False","False","False","False",2,5,1,"implicit-mouselab",24,324980,"default",16
"307","mouselab","False","[]","[[4, 4, 5, 3, 4, 3, 5], [3, 4, 6, 0, 7, 2, 6]]","[[3, 3, 3, 3, 3, 3, 3], [3, 3, 3, 3, 3, 3, 3]]","[8, 2]",9,23,4,0.046,0.046,0,"[]","default",4,"True","False","True","False",7,2,3,"implicit-mouselab",25,329476,"default",16
"308","mouselab","False","[]","[[3, 5], [6, 5], [4, 5], [3, 6], [3, 2]]","[[2, 2], [2, 2], [2, 2], [2, 2], [2, 2]]","[2, 2, 1, 4, 1]",1.2,24,1,0.051,0.051,0,"[]","control",-1,"False","False","False","False",2,5,2,"implicit-mouselab",26,332988,"default",16
"309","mouselab","True","[6, 6, 7, 7, 1, 1, 9, 9, 8, 8, 4, 4, 5, 5, 3, 3, 2, 2, 0, 0, 9]","[[5, 5], [2, 6], [5, 3], [4, 6], [5, 3]]","[[0, 0], [0, 0], [0, 0], [0, 0], [0, 0]]","[2, 1, 2, 3, 2]",0.4,1,1,0.046,0.026,0.02,"[6, 7, 1, 9, 8, 4, 5, 3, 2, 0]","control",-1,"False","False","False","False",2,5,2,"implicit-mouselab",4,228981,"default",17
"310","mouselab","True","[5, 5, 5, 9, 9, 9]","[[6, 6, 6, 5, 6, 4, 4], [4, 6, 5, 6, 7, 7, 6]]","[[3, 3, 3, 3, 3, 0, 3], [3, 3, 0, 3, 3, 3, 3]]","[8, 2]",9,2,2,0.058,0.052,0.006,"[5, 9]","control",-1,"False","False","False","False",7,2,3,"implicit-mouselab",5,246532,"default",17
"311","mouselab","False","[]","[[5, 3, 6, 5, 7, 8, 5], [3, 3, 4, 6, 5, 4, 7], [4, 3, 5, 3, 3, 5, 5], [6, 5, 5, 2, 7, 5, 4], [8, 5, 3, 1, 6, 6, 4]]","[[2, 2, 2, 2, 2, 2, 2], [2, 2, 2, 2, 2, 2, 2], [2, 2, 2, 2, 2, 2, 2], [2, 2, 2, 2, 2, 2, 2], [2, 2, 2, 2, 2, 2, 2]]","[1, 2, 1, 3, 3]",0.8,5,0,0.057,0.057,0,"[]","default",0,"True","False","True","False",7,5,2,"implicit-mouselab",7,258763,"default",17
"312","mouselab","False","[8, 8, 8]","[[0, 6], [5, 5], [5, 6], [4, 5], [6, 4]]","[[3, 3], [3, 3], [3, 3], [3, 3], [0, 3]]","[2, 1, 2, 1, 4]",1.2,6,0,0.043,0.04,0.003,"[8]","control",-1,"False","False","False","False",2,5,3,"implicit-mouselab",8,276995,"default",17
"313","mouselab","False","[0]","[[6, 5], [6, 3]]","[[0, 1], [1, 1]]","[1, 9]",16,7,0,0.06,0.059,0.001,"[0]","control",-1,"False","False","False","False",2,2,1,"implicit-mouselab",9,284349,"default",17
"314","mouselab","False","[2]","[[5, 3], [3, 6]]","[[1, 1], [0, 1]]","[2, 8]",9,8,1,0.054,0.053,0.001,"[2]","control",-1,"False","False","False","False",2,2,1,"implicit-mouselab",10,293078,"default",17
"315","mouselab","False","[6, 6, 6]","[[5, 5, 3, 3, 3, 5, 7], [4, 7, 4, 4, 5, 6, 5]]","[[3, 3, 3, 3, 3, 3, 0], [3, 3, 3, 3, 3, 3, 3]]","[8, 2]",9,9,6,0.066,0.063,0.003,"[6]","control",-1,"False","False","False","False",7,2,3,"implicit-mouselab",11,303492,"default",17
"316","mouselab","False","[3, 3, 4, 5]","[[5, 4, 2, 6, 6, 3, 4], [2, 7, 1, 1, 8, 5, 3]]","[[1, 1, 1, 0, 0, 0, 1], [1, 1, 1, 1, 1, 1, 1]]","[7, 3]",4,10,3,0.045,0.042,0.003,"[3, 4, 5]","control",-1,"False","False","False","False",7,2,1,"implicit-mouselab",12,310728,"default",17
"317","mouselab","False","[]","[[3, 5], [5, 9], [5, 7], [6, 6], [5, 8]]","[[4, 4], [4, 4], [4, 4], [4, 4], [4, 4]]","[3, 2, 3, 1, 1]",0.8,11,0,0.045,0.045,0,"[]","default",0,"True","False","True","False",2,5,4,"implicit-mouselab",13,313915,"default",17
"318","mouselab","False","[]","[[5, 7, 7, 5, 4, 6, 6], [5, 4, 3, 4, 5, 6, 6], [2, 6, 5, 6, 6, 5, 4], [4, 6, 0, 6, 4, 5, 4], [8, 4, 5, 6, 4, 4, 3]]","[[1, 1, 1, 1, 1, 1, 1], [1, 1, 1, 1, 1, 1, 1], [1, 1, 1, 1, 1, 1, 1], [1, 1, 1, 1, 1, 1, 1], [1, 1, 1, 1, 1, 1, 1]]","[1, 1, 3, 1, 4]",1.6,12,0,0.052,0.052,0,"[]","default",0,"True","False","True","False",7,5,1,"implicit-mouselab",14,316498,"default",17
"319","mouselab","False","[]","[[6, 3], [2, 5]]","[[4, 4], [4, 4]]","[7, 3]",4,13,1,0.036,0.036,0,"[]","default",1,"True","False","True","False",2,2,4,"implicit-mouselab",15,319091,"default",17
"320","mouselab","False","[]","[[4, 4], [6, 3]]","[[2, 2], [2, 2]]","[9, 1]",16,14,0,0.042,0.042,0,"[]","control",-1,"False","False","False","False",2,2,2,"implicit-mouselab",16,323182,"default",17
"321","mouselab","False","[]","[[7, 4], [5, 4], [6, 5], [5, 7], [4, 4]]","[[2, 2], [2, 2], [2, 2], [2, 2], [2, 2]]","[1, 3, 4, 1, 1]",1.6,15,1,0.047,0.047,0,"[]","default",1,"True","False","True","False",2,5,2,"implicit-mouselab",17,325997,"default",17
"322","mouselab","False","[]","[[4, 6], [8, 3], [3, 3], [2, 7], [5, 7]]","[[4, 4], [4, 4], [4, 4], [4, 4], [4, 4]]","[3, 1, 1, 2, 3]",0.8,16,0,0.042,0.042,0,"[]","default",0,"True","False","True","False",2,5,4,"implicit-mouselab",18,328148,"default",17
"323","mouselab","False","[]","[[5, 5, 6, 6, 1, 4, 3], [6, 3, 5, 2, 3, 3, 7]]","[[3, 3, 3, 3, 3, 3, 3], [3, 3, 3, 3, 3, 3, 3]]","[2, 8]",9,17,4,0.026,0.026,0,"[]","control",-1,"False","False","False","False",7,2,3,"implicit-mouselab",19,341473,"default",17
"324","mouselab","False","[]","[[5, 8, 6, 5, 4, 7, 5], [6, 7, 4, 3, 4, 5, 3], [5, 5, 2, 3, 4, 6, 9], [6, 3, 4, 4, 1, 6, 3], [0, 7, 6, 7, 3, 3, 6]]","[[2, 2, 2, 2, 2, 2, 2], [2, 2, 2, 2, 2, 2, 2], [2, 2, 2, 2, 2, 2, 2], [2, 2, 2, 2, 2, 2, 2], [2, 2, 2, 2, 2, 2, 2]]","[3, 1, 1, 2, 3]",0.8,18,6,0.051,0.051,0,"[]","default",6,"True","False","True","False",7,5,2,"implicit-mouselab",20,344150,"default",17
"325","mouselab","False","[0, 0, 0]","[[5, 6], [6, 7], [7, 5], [3, 6], [6, 3]]","[[0, 3], [3, 3], [3, 3], [3, 3], [3, 3]]","[2, 3, 1, 2, 2]",0.4,19,1,0.056,0.053,0.003,"[0]","control",-1,"False","False","False","False",2,5,3,"implicit-mouselab",21,353231,"default",17
"326","mouselab","False","[]","[[9, 7], [4, 4]]","[[3, 3], [3, 3]]","[9, 1]",16,20,0,0.085,0.085,0,"[]","default",0,"True","False","True","False",2,2,3,"implicit-mouselab",22,355370,"default",17
"327","mouselab","False","[]","[[4, 6, 5, 7, 2, 5, 4], [3, 7, 5, 8, 3, 5, 7]]","[[2, 2, 2, 2, 2, 2, 2], [2, 2, 2, 2, 2, 2, 2]]","[2, 8]",9,21,0,0.032,0.032,0,"[]","control",-1,"False","False","False","False",7,2,2,"implicit-mouselab",23,360291,"default",17
"328","mouselab","False","[]","[[4, 7, 5, 6, 5, 4, 2], [4, 4, 5, 6, 3, 5, 4], [5, 5, 6, 4, 5, 5, 3], [8, 5, 5, 4, 1, 5, 5], [4, 7, 3, 6, 7, 9, 7]]","[[4, 4, 4, 4, 4, 4, 4], [4, 4, 4, 4, 4, 4, 4], [4, 4, 4, 4, 4, 4, 4], [4, 4, 4, 4, 4, 4, 4], [4, 4, 4, 4, 4, 4, 4]]","[1, 2, 1, 2, 4]",1.2,22,2,0.043,0.043,0,"[]","default",2,"True","False","True","False",7,5,4,"implicit-mouselab",24,364453,"default",17
"329","mouselab","False","[]","[[7, 6, 5, 7, 4, 5, 8], [3, 8, 7, 6, 5, 5, 6], [7, 6, 3, 5, 7, 2, 5], [3, 4, 6, 8, 6, 3, 7], [4, 5, 5, 5, 5, 6, 5]]","[[4, 4, 4, 4, 4, 4, 4], [4, 4, 4, 4, 4, 4, 4], [4, 4, 4, 4, 4, 4, 4], [4, 4, 4, 4, 4, 4, 4], [4, 4, 4, 4, 4, 4, 4]]","[2, 3, 2, 2, 1]",0.4,23,0,0.047,0.047,0,"[]","default",0,"True","False","True","False",7,5,4,"implicit-mouselab",25,366420,"default",17
"330","mouselab","False","[]","[[6, 6, 4, 3, 7, 7, 6], [4, 9, 4, 6, 7, 4, 5]]","[[1, 1, 1, 1, 1, 1, 1], [1, 1, 1, 1, 1, 1, 1]]","[1, 9]",16,24,3,0.057,0.057,0,"[]","control",-1,"False","False","False","False",7,2,1,"implicit-mouselab",26,369728,"default",17
"331","mouselab","True","[7, 7, 7]","[[3, 6, 5, 5, 4, 4, 6], [6, 6, 4, 4, 1, 1, 4]]","[[3, 3, 3, 3, 3, 3, 3], [0, 3, 3, 3, 3, 3, 3]]","[1, 9]",16,1,0,0.057,0.054,0.003,"[7]","control",-1,"False","False","False","False",7,2,3,"implicit-mouselab",4,359486,"default",18
"332","mouselab","True","[7, 7]","[[9, 7], [9, 6], [3, 5], [4, 8], [4, 6]]","[[2, 2], [2, 2], [2, 2], [2, 0], [2, 2]]","[3, 1, 1, 4, 1]",1.6,2,1,0.07,0.068,0.002,"[7]","control",-1,"False","False","False","False",2,5,2,"implicit-mouselab",5,379213,"default",18
"333","mouselab","False","[]","[[6, 5], [5, 7]]","[[4, 4], [4, 4]]","[3, 7]",4,5,1,0.064,0.064,0,"[]","default",1,"True","False","True","False",2,2,4,"implicit-mouselab",7,402053,"default",18
"334","mouselab","False","[6, 6, 0, 0]","[[5, 3, 4, 7, 6, 2, 4], [2, 2, 3, 4, 5, 8, 5]]","[[0, 2, 2, 2, 2, 2, 0], [2, 2, 2, 2, 2, 2, 2]]","[9, 1]",16,6,0,0.047,0.043,0.004,"[6, 0]","control",-1,"False","False","False","False",7,2,2,"implicit-mouselab",8,421941,"default",18
"335","mouselab","False","[7, 7, 7, 9, 9, 9]","[[1, 7, 5, 6, 4, 4, 5], [2, 5, 6, 5, 5, 4, 4]]","[[3, 3, 3, 3, 3, 3, 3], [0, 3, 0, 3, 3, 3, 3]]","[3, 7]",4,7,2,0.057,0.051,0.006,"[7, 9]","control",-1,"False","False","False","False",7,2,3,"implicit-mouselab",9,439101,"default",18
"336","mouselab","False","[]","[[8, 4, 1, 4, 6, 4, 5], [3, 5, 6, 4, 3, 6, 4]]","[[4, 4, 4, 4, 4, 4, 4], [4, 4, 4, 4, 4, 4, 4]]","[8, 2]",9,8,0,0.07,0.07,0,"[]","default",0,"True","False","True","False",7,2,4,"implicit-mouselab",10,451277,"default",18
"337","mouselab","False","[]","[[5, 4], [7, 6]]","[[1, 1], [1, 1]]","[2, 8]",9,9,1,0.056,0.056,0,"[]","default",1,"True","False","True","False",2,2,1,"implicit-mouselab",11,457676,"default",18
"338","mouselab","False","[2, 2]","[[7, 5, 7, 6, 6, 4, 4], [9, 6, 2, 6, 6, 4, 4], [1, 2, 4, 5, 4, 3, 5], [6, 6, 8, 7, 6, 4, 6], [5, 6, 6, 3, 5, 5, 4]]","[[2, 2, 0, 2, 2, 2, 2], [2, 2, 2, 2, 2, 2, 2], [2, 2, 2, 2, 2, 2, 2], [2, 2, 2, 2, 2, 2, 2], [2, 2, 2, 2, 2, 2, 2]]","[3, 2, 1, 1, 3]",0.8,10,2,0.055,0.053,0.002,"[2]","control",-1,"False","False","False","False",7,5,2,"implicit-mouselab",12,473684,"default",18
"339","mouselab","False","[3, 3, 3]","[[4, 10], [6, 8], [2, 3], [6, 4], [2, 1]]","[[3, 3], [3, 0], [3, 3], [3, 3], [3, 3]]","[2, 4, 1, 1, 2]",1.2,11,1,0.061,0.058,0.003,"[3]","control",-1,"False","False","False","False",2,5,3,"implicit-mouselab",13,494939,"default",18
"340","mouselab","False","[3, 3, 3, 3]","[[9, 7], [7, 4]]","[[4, 4], [4, 0]]","[1, 9]",16,12,0,0.072,0.068,0.004,"[3]","control",-1,"False","False","False","False",2,2,4,"implicit-mouselab",14,510692,"default",18
"341","mouselab","False","[]","[[6, 2], [4, 5], [5, 4], [8, 7], [5, 6]]","[[1, 1], [1, 1], [1, 1], [1, 1], [1, 1]]","[4, 1, 1, 1, 3]",1.6,13,1,0.042,0.042,0,"[]","default",1,"True","False","True","False",2,5,1,"implicit-mouselab",15,514932,"default",18
"342","mouselab","False","[]","[[3, 5], [6, 5]]","[[4, 4], [4, 4]]","[9, 1]",16,14,0,0.033,0.033,0,"[]","default",1,"False","False","False","False",2,2,4,"implicit-mouselab",16,527075,"default",18
"343","mouselab","False","[1, 1, 1]","[[5, 5], [4, 10], [4, 6], [3, 3], [7, 6]]","[[3, 0], [3, 3], [3, 3], [3, 3], [3, 3]]","[4, 3, 1, 1, 1]",1.6,15,1,0.065,0.062,0.003,"[1]","control",-1,"False","False","False","False",2,5,3,"implicit-mouselab",17,540291,"default",18
"344","mouselab","False","[1, 0]","[[7, 6], [4, 7]]","[[0, 0], [1, 1]]","[9, 1]",16,16,0,0.067,0.065,0.002,"[1, 0]","control",-1,"False","False","False","False",2,2,1,"implicit-mouselab",18,549515,"default",18
"345","mouselab","False","[7, 7, 9, 9]","[[3, 3, 5, 4, 3, 5, 4], [4, 3, 5, 4, 5, 7, 5], [8, 7, 8, 2, 6, 4, 7], [3, 3, 8, 1, 3, 4, 2], [2, 3, 2, 2, 5, 7, 6]]","[[2, 2, 2, 2, 2, 2, 2], [0, 2, 0, 2, 2, 2, 2], [2, 2, 2, 2, 2, 2, 2], [2, 2, 2, 2, 2, 2, 2], [2, 2, 2, 2, 2, 2, 2]]","[1, 4, 2, 2, 1]",1.2,17,2,0.059,0.055,0.004,"[7, 9]","control",-1,"False","False","False","False",7,5,2,"implicit-mouselab",19,560043,"default",18
