"","type","is_practice","click_values","payoff_matrix","cost_matrix","weights","weights_deviation","trial_num","selected_option","gross_earnings","net_earnings","click_cost","uncovered_values","num_values_revealed","nudge_type","num_baskets","num_features","reaction_time","points_click_cost","points_action_utility","points_metalevel_reward","problem_id","trial_type","trial_index","time_elapsed","participant_id"
"1","mouselab","True","[6, 6, 21, 21, 16, 16, 11, 11]","[[7, 5, 6, 8, 5], [5, 4, 5, 2, 6], [5, 2, 5, 6, 3], [6, 6, 7, 4, 4], [6, 0, 4, 5, 6]]","[[0, 0, 2, 0, 2], [2, 2, 2, 2, 2], [2, 2, 0, 2, 2], [0, 2, 2, 2, 2], [2, 2, 2, 2, 0]]","[9, 7, 2, 9, 3]",14,1,1,0.044,0.0413333333333333,0.00266666666666667,"[6, 21, 16, 11]",4,"random",5,5,19689,8,131,123,704596,"attentional-mouselab",4,208716,0
"2","mouselab","True","[9, 9, 14, 14, 19, 19]","[[4, 3, 7, 5, 7], [5, 4, 4, 3, 4], [3, 3, 4, 5, 8], [4, 4, 4, 6, 4], [6, 3, 6, 6, 2]]","[[2, 2, 2, 2, 0], [2, 0, 2, 2, 2], [2, 0, 2, 2, 2], [2, 0, 2, 2, 2], [2, 0, 2, 2, 0]]","[1, 21, 3, 4, 1]",30,2,4,0.044,0.042,0.002,"[9, 14, 19]",3,"random",5,5,10359,6,133,127,363314,"attentional-mouselab",5,221216,0
"3","mouselab","False","[6, 6, 11, 11, 16, 16]","[[5, 5, 6, 6, 9], [6, 6, 5, 4, 5], [7, 7, 5, 4, 5], [3, 7, 5, 9, 6], [5, 7, 6, 2, 3]]","[[2, 0, 2, 2, 0], [2, 2, 0, 2, 2], [2, 2, 2, 2, 2], [2, 2, 2, 0, 2], [2, 0, 2, 0, 2]]","[9, 4, 5, 5, 7]",8,3,1,0.063,0.061,0.002,"[6, 11, 16]",3,"extreme",5,5,7792,6,188,182,482537,"attentional-mouselab",7,239917,0
"4","mouselab","False","[2, 2]","[[3, 7, 3, 4, 3], [5, 3, 8, 2, 4], [8, 3, 6, 5, 8], [4, 6, 6, 4, 5], [6, 5, 8, 7, 4]]","[[2, 2, 2, 2, 0], [2, 2, 0, 2, 2], [2, 2, 0, 2, 2], [2, 2, 0, 2, 2], [2, 2, 0, 2, 0]]","[1, 2, 2, 19, 6]",26,4,2,0.064,0.0633333333333333,0.000666666666666667,"[2]",1,"greedy",5,5,7059,2,193,191,733392,"attentional-mouselab",8,249648,0
"5","mouselab","False","[23, 23, 18, 18, 13, 13, 3, 3, 4, 4, 9, 9, 14, 14, 19, 19, 16, 16, 11, 6, 6, 6, 11, 1, 1, 7, 7, 17, 17, 20, 20, 15, 15, 10, 10, 10, 5, 5, 0, 0]","[[4, 3, 7, 5, 4], [5, 7, 6, 6, 6], [4, 4, 9, 5, 5], [7, 4, 4, 7, 5], [4, 5, 8, 2, 4]]","[[2, 2, 0, 2, 2], [2, 2, 2, 0, 2], [2, 2, 0, 2, 2], [2, 2, 2, 2, 2], [2, 0, 0, 2, 0]]","[8, 3, 13, 5, 1]",18,5,2,0.073,0.0603333333333333,0.0126666666666667,"[23, 18, 13, 3, 4, 9, 14, 19, 16, 6, 11, 1, 7, 17, 20, 15, 10, 5, 0]",19,"greedy",5,5,40102,38,219,181,720649,"attentional-mouselab",9,292173,0
"6","mouselab","False","[0, 0, 0, 20, 20]","[[4, 6, 7, 5, 4], [8, 6, 7, 5, 1], [5, 4, 5, 5, 6], [6, 1, 5, 2, 6], [5, 6, 4, 3, 5]]","[[2, 2, 0, 2, 0], [0, 2, 0, 2, 2], [0, 2, 2, 2, 2], [0, 2, 2, 2, 2], [2, 2, 2, 2, 2]]","[1, 11, 8, 8, 2]",18,6,0,0.063,0.0616666666666667,0.00133333333333333,"[0, 20]",2,"greedy",5,5,5396,4,190,186,249498,"attentional-mouselab",10,299237,0
"7","mouselab","False","[23, 23, 18, 18, 13, 13, 8, 8, 3, 3]","[[3, 2, 5, 6, 5], [6, 7, 4, 1, 6], [5, 6, 3, 4, 3], [4, 6, 5, 3, 6], [2, 4, 4, 6, 3]]","[[2, 2, 2, 2, 2], [2, 2, 2, 2, 2], [0, 2, 0, 2, 0], [0, 0, 2, 2, 2], [2, 2, 0, 2, 2]]","[1, 5, 7, 4, 13]",16,7,3,0.043,0.0396666666666667,0.00333333333333333,"[23, 18, 13, 8, 3]",5,"random",5,5,7747,10,129,119,950355,"attentional-mouselab",11,308607,0
"8","mouselab","False","[13, 13, 8, 8]","[[4, 3, 5, 7, 6], [1, 5, 5, 5, 8], [5, 7, 5, 6, 4], [4, 3, 6, 7, 7], [5, 3, 3, 8, 2]]","[[2, 2, 2, 0, 2], [2, 2, 2, 2, 2], [2, 2, 2, 2, 2], [0, 2, 2, 0, 0], [0, 2, 2, 0, 2]]","[4, 19, 3, 3, 1]",26,8,3,0.057,0.0556666666666667,0.00133333333333333,"[13, 8]",2,"greedy",5,5,4351,4,170,166,419683,"attentional-mouselab",12,314627,0
"9","mouselab","False","[6, 6, 6, 11, 11, 21, 21]","[[3, 2, 5, 3, 3], [2, 6, 8, 3, 3], [6, 8, 4, 3, 5], [6, 5, 1, 3, 4], [4, 7, 2, 2, 6]]","[[2, 0, 2, 2, 0], [0, 2, 2, 2, 2], [2, 2, 2, 2, 2], [2, 0, 0, 0, 2], [2, 2, 2, 2, 2]]","[14, 3, 3, 6, 4]",16,9,1,0.043,0.041,0.002,"[6, 11, 21]",3,"extreme",5,5,6679,6,128,122,529562,"attentional-mouselab",13,323659,0
"10","mouselab","False","[7, 7, 2, 2]","[[3, 5, 6, 9, 4], [7, 2, 6, 5, 6], [5, 6, 9, 6, 2], [4, 6, 6, 8, 2], [3, 6, 2, 5, 5]]","[[2, 2, 2, 2, 2], [0, 0, 2, 0, 0], [2, 2, 2, 2, 0], [2, 2, 2, 2, 2], [0, 2, 2, 2, 2]]","[8, 5, 3, 10, 4]",12,10,2,0.058,0.0566666666666667,0.00133333333333333,"[7, 2]",2,"random",5,5,10928,4,173,169,852576,"attentional-mouselab",14,336616,0
"11","mouselab","False","[]","[[3, 8, 9, 4, 6], [4, 6, 7, 5, 6], [5, 6, 3, 5, 7], [1, 6, 6, 9, 4], [5, 4, 3, 4, 7]]","[[2, 2, 2, 2, 0], [2, 0, 2, 2, 0], [2, 0, 2, 2, 0], [2, 2, 2, 2, 2], [2, 2, 2, 2, 0]]","[5, 6, 10, 7, 2]",10,11,2,0.055,0.055,0,"[]",0,"greedy",5,5,1810,0,165,165,112816,"attentional-mouselab",15,343803,0
"12","mouselab","False","[]","[[8, 5, 6, 4, 3], [6, 6, 4, 8, 9], [7, 2, 3, 2, 4], [7, 6, 4, 2, 4], [6, 4, 3, 6, 5]]","[[0, 2, 2, 2, 2], [2, 2, 0, 2, 2], [0, 2, 2, 0, 2], [0, 0, 2, 2, 2], [2, 2, 2, 2, 2]]","[4, 1, 5, 19, 1]",26,12,0,0.071,0.071,0,"[]",0,"greedy",5,5,1990,0,212,212,334267,"attentional-mouselab",16,348198,0
"13","mouselab","False","[]","[[1, 3, 4, 4, 4], [3, 8, 5, 5, 4], [3, 5, 5, 3, 6], [3, 4, 10, 7, 6], [5, 6, 4, 5, 2]]","[[0, 2, 2, 2, 0], [2, 0, 2, 2, 2], [2, 2, 2, 0, 0], [2, 2, 0, 2, 2], [2, 2, 2, 2, 2]]","[2, 10, 9, 3, 6]",14,13,2,0.052,0.052,0,"[]",0,"extreme",5,5,2040,0,157,157,73210,"attentional-mouselab",17,351846,0
"14","mouselab","False","[]","[[8, 6, 5, 5, 2], [6, 4, 7, 3, 7], [7, 7, 4, 2, 7], [2, 3, 4, 4, 7], [6, 6, 10, 3, 5]]","[[0, 2, 2, 0, 2], [2, 2, 2, 2, 2], [0, 2, 2, 2, 2], [0, 2, 2, 2, 2], [2, 0, 0, 2, 2]]","[1, 3, 15, 3, 8]",22,14,3,0.027,0.027,0,"[]",0,"extreme",5,5,1691,0,80,80,639434,"attentional-mouselab",18,354969,0
"15","mouselab","False","[]","[[0, 4, 4, 5, 4], [6, 6, 7, 4, 6], [5, 6, 5, 5, 6], [7, 3, 5, 6, 8], [8, 3, 6, 5, 5]]","[[0, 0, 2, 2, 2], [2, 2, 2, 2, 2], [0, 2, 2, 2, 2], [2, 2, 2, 2, 0], [0, 2, 2, 2, 0]]","[2, 3, 2, 11, 12]",22,15,4,0.062,0.062,0,"[]",0,"extreme",5,5,1380,0,186,186,576457,"attentional-mouselab",19,358149,0
"16","mouselab","False","[]","[[5, 1, 3, 8, 6], [1, 6, 6, 4, 4], [5, 5, 2, 8, 7], [5, 8, 7, 8, 3], [6, 5, 7, 4, 5]]","[[2, 0, 2, 0, 2], [0, 2, 2, 0, 2], [2, 2, 0, 2, 2], [2, 0, 2, 2, 2], [2, 2, 2, 2, 2]]","[4, 4, 10, 6, 6]",8,16,0,0.047,0.047,0,"[]",0,"extreme",5,5,1536,0,140,140,826055,"attentional-mouselab",20,361465,0
"17","mouselab","False","[]","[[8, 6, 7, 4, 4], [10, 2, 6, 6, 3], [5, 8, 7, 6, 4], [6, 3, 5, 1, 5], [8, 6, 2, 3, 7]]","[[0, 2, 2, 2, 2], [0, 2, 2, 2, 2], [2, 2, 2, 2, 2], [2, 2, 2, 0, 2], [0, 0, 2, 2, 0]]","[7, 14, 1, 2, 6]",18,17,0,0.087,0.087,0,"[]",0,"extreme",5,5,1246,0,261,261,992293,"attentional-mouselab",21,364469,0
"18","mouselab","False","[]","[[6, 2, 6, 3, 4], [4, 3, 4, 5, 6], [4, 2, 5, 3, 6], [5, 5, 3, 3, 5], [6, 5, 5, 6, 7]]","[[2, 0, 2, 0, 2], [2, 2, 2, 2, 2], [2, 2, 0, 2, 0], [2, 0, 2, 2, 2], [0, 2, 2, 2, 2]]","[2, 9, 11, 5, 3]",16,18,4,0.058,0.058,0,"[]",0,"random",5,5,2872,0,174,174,890280,"attentional-mouselab",22,369022,0
"19","mouselab","False","[]","[[8, 8, 6, 2, 5], [4, 7, 6, 6, 8], [1, 3, 3, 6, 3], [1, 2, 3, 3, 5], [5, 4, 7, 3, 5]]","[[0, 2, 2, 2, 2], [2, 2, 2, 2, 2], [0, 0, 2, 0, 2], [0, 2, 2, 0, 2], [2, 2, 2, 2, 2]]","[5, 3, 2, 17, 3]",22,19,3,0.033,0.033,0,"[]",0,"random",5,5,3687,0,100,100,899713,"attentional-mouselab",23,377088,0
"20","mouselab","False","[]","[[5, 4, 6, 1, 4], [3, 6, 4, 6, 3], [2, 6, 3, 2, 7], [2, 7, 4, 5, 2], [7, 5, 9, 3, 5]]","[[2, 0, 2, 0, 2], [2, 2, 2, 2, 2], [0, 2, 2, 2, 2], [2, 2, 2, 2, 0], [2, 2, 0, 2, 0]]","[4, 8, 14, 1, 3]",20,20,2,0.043,0.043,0,"[]",0,"extreme",5,5,2354,0,129,129,314092,"attentional-mouselab",24,380757,0
"21","mouselab","False","[]","[[4, 3, 4, 5, 4], [6, 10, 1, 6, 3], [7, 5, 3, 6, 6], [7, 5, 3, 4, 5], [0, 3, 5, 5, 6]]","[[2, 2, 0, 2, 2], [2, 0, 0, 2, 2], [0, 2, 2, 2, 2], [2, 2, 0, 2, 2], [0, 2, 2, 2, 2]]","[2, 3, 18, 5, 2]",24,21,1,0.052,0.052,0,"[]",0,"extreme",5,5,2825,0,157,157,171321,"attentional-mouselab",25,385398,0
"22","mouselab","False","[]","[[6, 5, 6, 6, 4], [6, 2, 5, 2, 4], [3, 7, 7, 3, 8], [6, 6, 6, 5, 5], [4, 4, 3, 0, 5]]","[[2, 2, 0, 2, 2], [0, 2, 2, 2, 2], [2, 2, 0, 2, 0], [2, 0, 0, 2, 2], [2, 2, 2, 2, 2]]","[4, 8, 4, 8, 6]",8,22,2,0.053,0.053,0,"[]",0,"greedy",5,5,2010,0,158,158,759766,"attentional-mouselab",26,388693,0
"23","mouselab","False","[]","[[4, 4, 5, 5, 2], [5, 5, 2, 5, 6], [3, 8, 6, 6, 6], [6, 5, 7, 3, 6], [7, 7, 4, 7, 7]]","[[2, 2, 2, 0, 2], [2, 2, 2, 2, 2], [0, 2, 2, 2, 0], [2, 0, 2, 2, 0], [0, 2, 2, 2, 2]]","[13, 7, 1, 3, 6]",16,23,2,0.043,0.043,0,"[]",0,"random",5,5,2665,0,130,130,963702,"attentional-mouselab",27,392738,0
"24","mouselab","False","[]","[[1, 4, 7, 7, 8], [6, 8, 4, 3, 6], [4, 4, 7, 7, 6], [4, 5, 3, 2, 5], [4, 5, 6, 5, 8]]","[[2, 0, 2, 2, 2], [2, 2, 2, 2, 0], [2, 2, 2, 2, 2], [0, 2, 0, 2, 0], [2, 0, 2, 2, 2]]","[14, 2, 9, 1, 4]",22,24,3,0.063,0.063,0,"[]",0,"random",5,5,2252,0,189,189,516350,"attentional-mouselab",28,396364,0
"25","mouselab","False","[]","[[5, 4, 5, 4, 3], [4, 6, 7, 2, 3], [5, 2, 1, 5, 2], [7, 9, 5, 8, 4], [4, 4, 6, 3, 7]]","[[0, 2, 0, 2, 2], [0, 2, 2, 2, 2], [2, 0, 2, 2, 2], [2, 2, 2, 0, 2], [0, 2, 2, 2, 2]]","[13, 10, 4, 2, 1]",22,25,0,0.048,0.048,0,"[]",0,"random",5,5,17992,0,143,143,223979,"attentional-mouselab",29,415916,0
"26","mouselab","False","[]","[[5, 0, 5, 5, 6], [4, 2, 7, 3, 7], [7, 6, 5, 5, 5], [9, 3, 5, 4, 7], [8, 5, 2, 5, 7]]","[[2, 0, 2, 2, 2], [2, 0, 2, 0, 2], [2, 2, 2, 2, 2], [0, 2, 2, 2, 2], [0, 2, 2, 0, 2]]","[5, 2, 16, 6, 1]",20,26,0,0.069,0.069,0,"[]",0,"extreme",5,5,1853,0,207,207,207390,"attentional-mouselab",30,419309,0
"27","mouselab","False","[]","[[8, 3, 7, 6, 5], [4, 4, 7, 4, 6], [4, 9, 6, 3, 7], [6, 5, 4, 5, 6], [4, 3, 4, 4, 7]]","[[2, 2, 0, 2, 2], [2, 2, 2, 2, 0], [2, 2, 2, 0, 0], [2, 2, 2, 2, 0], [2, 2, 2, 2, 0]]","[2, 7, 4, 11, 6]",12,27,4,0.063,0.063,0,"[]",0,"greedy",5,5,1725,0,188,188,887511,"attentional-mouselab",31,422947,0
"28","mouselab","False","[]","[[5, 6, 6, 6, 2], [7, 6, 3, 6, 6], [1, 8, 3, 4, 2], [4, 6, 5, 7, 5], [3, 6, 8, 7, 8]]","[[2, 2, 2, 2, 2], [0, 2, 0, 2, 2], [2, 0, 2, 2, 2], [2, 2, 2, 0, 2], [2, 2, 0, 0, 2]]","[6, 11, 9, 3, 1]",16,28,2,0.04,0.04,0,"[]",0,"greedy",5,5,3357,0,119,119,342959,"attentional-mouselab",32,427889,0
"29","mouselab","False","[]","[[3, 4, 3, 5, 4], [10, 6, 7, 6, 3], [6, 7, 5, 3, 4], [1, 5, 5, 4, 5], [4, 4, 7, 4, 6]]","[[2, 2, 2, 0, 0], [0, 2, 2, 0, 2], [2, 0, 2, 2, 2], [2, 2, 2, 2, 2], [2, 2, 2, 2, 0]]","[7, 5, 2, 9, 7]",10,29,0,0.04,0.04,0,"[]",0,"random",5,5,1773,0,120,120,227159,"attentional-mouselab",33,431955,0
"30","mouselab","False","[]","[[5, 6, 5, 4, 5], [7, 2, 1, 5, 8], [9, 6, 4, 4, 6], [4, 5, 6, 7, 6], [3, 4, 4, 7, 4]]","[[0, 0, 2, 2, 2], [0, 2, 2, 2, 2], [2, 2, 2, 2, 2], [2, 0, 0, 2, 2], [2, 2, 2, 0, 2]]","[3, 2, 8, 14, 3]",20,30,4,0.058,0.058,0,"[]",0,"random",5,5,2301,0,175,175,709696,"attentional-mouselab",34,436064,0
"31","mouselab","False","[]","[[6, 6, 6, 2, 5], [5, 6, 7, 4, 5], [5, 4, 6, 5, 4], [5, 3, 3, 8, 5], [4, 3, 7, 4, 3]]","[[0, 2, 0, 2, 2], [2, 2, 0, 2, 2], [2, 2, 0, 2, 2], [0, 0, 2, 2, 2], [2, 2, 2, 2, 2]]","[7, 7, 3, 5, 8]",8,31,2,0.06,0.06,0,"[]",0,"random",5,5,3782,0,180,180,107562,"attentional-mouselab",35,441490,0
"32","mouselab","False","[]","[[0, 4, 4, 8, 5], [6, 6, 3, 5, 6], [3, 4, 6, 5, 7], [6, 5, 2, 3, 7], [4, 8, 6, 4, 3]]","[[2, 2, 2, 2, 2], [2, 0, 2, 0, 0], [2, 2, 2, 2, 0], [2, 2, 2, 2, 0], [2, 0, 2, 2, 2]]","[1, 15, 2, 2, 10]",26,32,4,0.051,0.051,0,"[]",0,"greedy",5,5,3539,0,153,153,824305,"attentional-mouselab",36,446483,0
"33","mouselab","True","[0, 0, 5, 5, 10, 10, 20, 20]","[[7, 6, 4, 5, 7], [5, 4, 5, 6, 9], [7, 4, 7, 2, 4], [6, 5, 7, 3, 6], [6, 6, 6, 6, 4]]","[[2, 2, 2, 2, 2], [2, 0, 0, 2, 0], [2, 2, 2, 2, 0], [0, 2, 2, 0, 2], [2, 2, 2, 2, 2]]","[8, 2, 1, 9, 10]",18,1,0,0.062,0.0593333333333333,0.00266666666666667,"[0, 5, 10, 20]",4,"random",5,5,18462,8,187,179,17579,"attentional-mouselab",4,139560,1
"34","mouselab","True","[12, 12]","[[6, 3, 3, 5, 6], [6, 7, 5, 6, 8], [5, 4, 3, 5, 3], [4, 6, 8, 6, 6], [6, 6, 5, 7, 6]]","[[2, 0, 2, 2, 2], [2, 2, 0, 2, 0], [2, 2, 2, 2, 2], [2, 0, 0, 2, 0], [2, 2, 2, 2, 2]]","[1, 20, 2, 6, 1]",28,2,2,0.054,0.0533333333333333,0.000666666666666667,"[12]",1,"random",5,5,4903,2,162,160,556336,"attentional-mouselab",5,148132,1
"35","mouselab","False","[]","[[3, 7, 5, 4, 7], [7, 4, 6, 5, 5], [5, 3, 3, 5, 7], [6, 7, 8, 2, 0], [3, 6, 5, 9, 6]]","[[2, 0, 0, 2, 0], [2, 2, 2, 2, 2], [2, 2, 2, 2, 0], [2, 2, 0, 2, 0], [2, 2, 2, 2, 2]]","[15, 3, 1, 10, 1]",26,3,4,0.044,0.044,0,"[]",0,"greedy",5,5,2632,0,133,133,664520,"attentional-mouselab",7,157752,1
"36","mouselab","False","[18, 18, 15, 15]","[[10, 4, 4, 3, 4], [7, 6, 4, 10, 5], [5, 5, 7, 6, 4], [6, 5, 3, 6, 7], [3, 7, 5, 4, 1]]","[[0, 2, 2, 0, 2], [2, 2, 0, 0, 2], [2, 2, 2, 0, 2], [2, 2, 2, 2, 2], [2, 0, 2, 2, 2]]","[5, 2, 13, 9, 1]",20,4,3,0.057,0.0556666666666667,0.00133333333333333,"[18, 15]",2,"greedy",5,5,9037,4,171,167,657365,"attentional-mouselab",8,168430,1
"37","mouselab","False","[10, 10, 5, 5, 6, 6, 7, 7, 8, 8, 9, 9]","[[7, 2, 4, 3, 3], [3, 8, 4, 7, 4], [5, 6, 5, 5, 5], [5, 7, 4, 7, 5], [4, 2, 3, 5, 7]]","[[0, 2, 2, 0, 2], [2, 2, 2, 2, 2], [2, 0, 2, 0, 0], [0, 2, 2, 2, 2], [2, 2, 2, 2, 2]]","[4, 17, 4, 3, 2]",22,5,1,0.064,0.06,0.004,"[10, 5, 6, 7, 8, 9]",6,"random",5,5,16426,12,193,181,626659,"attentional-mouselab",9,186452,1
"38","mouselab","False","[5, 5, 6, 6, 7, 7, 8, 8, 9, 9]","[[7, 6, 4, 5, 5], [5, 6, 4, 6, 6], [5, 7, 6, 3, 2], [5, 7, 3, 5, 5], [6, 3, 4, 4, 6]]","[[0, 2, 2, 2, 2], [2, 2, 2, 2, 2], [0, 0, 2, 0, 0], [2, 2, 2, 2, 2], [2, 2, 0, 2, 2]]","[4, 13, 3, 6, 4]",14,6,3,0.051,0.0476666666666667,0.00333333333333333,"[5, 6, 7, 8, 9]",5,"extreme",5,5,8991,10,153,143,623884,"attentional-mouselab",10,196890,1
"39","mouselab","False","[0, 0, 1, 1, 3, 3]","[[6, 4, 8, 3, 6], [3, 4, 6, 2, 7], [5, 5, 3, 7, 7], [5, 2, 6, 7, 4], [6, 6, 8, 6, 2]]","[[2, 2, 0, 2, 0], [2, 2, 2, 2, 2], [0, 2, 0, 2, 2], [2, 2, 2, 2, 2], [0, 0, 2, 2, 2]]","[9, 7, 2, 6, 6]",8,7,2,0.068,0.066,0.002,"[0, 1, 3]",3,"random",5,5,4932,6,204,198,677796,"attentional-mouselab",11,202958,1
"40","mouselab","False","[23, 23, 24, 24]","[[2, 5, 4, 5, 4], [6, 5, 6, 6, 7], [5, 4, 3, 5, 6], [4, 5, 3, 4, 7], [7, 7, 8, 5, 3]]","[[0, 2, 2, 2, 2], [0, 2, 2, 2, 0], [2, 2, 2, 2, 2], [2, 2, 2, 2, 2], [0, 0, 0, 2, 2]]","[6, 1, 18, 2, 3]",24,8,2,0.038,0.0366666666666667,0.00133333333333333,"[23, 24]",2,"extreme",5,5,4515,4,114,110,610420,"attentional-mouselab",12,208624,1
"41","mouselab","False","[6, 6, 8, 8, 9, 9]","[[6, 5, 7, 6, 4], [5, 5, 4, 4, 5], [6, 7, 4, 6, 7], [3, 8, 6, 4, 3], [5, 3, 5, 7, 4]]","[[2, 2, 2, 2, 2], [0, 2, 0, 2, 2], [2, 0, 2, 2, 2], [2, 0, 0, 2, 2], [2, 2, 0, 2, 2]]","[1, 17, 1, 1, 10]",30,9,1,0.045,0.043,0.002,"[6, 8, 9]",3,"random",5,5,6581,6,135,129,851158,"attentional-mouselab",13,216388,1
"42","mouselab","False","[]","[[7, 2, 3, 6, 5], [4, 5, 3, 8, 4], [3, 6, 2, 4, 5], [6, 8, 6, 4, 7], [5, 5, 7, 7, 8]]","[[2, 2, 2, 2, 2], [2, 2, 2, 0, 0], [2, 2, 2, 2, 2], [2, 2, 2, 0, 0], [2, 2, 0, 2, 0]]","[13, 2, 6, 6, 3]",14,10,3,0.054,0.054,0,"[]",0,"greedy",5,5,4981,0,163,163,343669,"attentional-mouselab",14,222474,1
"43","mouselab","False","[5, 5, 7, 7, 8, 8, 9, 9]","[[6, 5, 5, 3, 7], [6, 1, 8, 3, 4], [6, 6, 9, 7, 5], [3, 3, 8, 5, 5], [5, 7, 4, 1, 5]]","[[2, 2, 0, 2, 2], [2, 0, 2, 2, 2], [2, 2, 0, 2, 2], [2, 2, 2, 0, 0], [2, 2, 2, 0, 2]]","[4, 16, 2, 3, 5]",20,11,2,0.07,0.0673333333333333,0.00266666666666667,"[5, 7, 8, 9]",4,"extreme",5,5,4903,8,210,202,662342,"attentional-mouselab",15,228452,1
"44","mouselab","False","[]","[[8, 5, 3, 5, 5], [4, 6, 5, 3, 5], [4, 6, 8, 8, 4], [9, 4, 4, 6, 7], [4, 4, 4, 4, 2]]","[[0, 2, 2, 0, 2], [2, 2, 2, 2, 2], [2, 2, 2, 0, 2], [0, 2, 0, 2, 2], [2, 2, 2, 0, 2]]","[2, 9, 4, 8, 7]",12,12,3,0.048,0.048,0,"[]",0,"greedy",5,5,4249,0,145,145,247392,"attentional-mouselab",16,233658,1
"45","mouselab","False","[15, 15, 16, 16, 17, 17, 18, 18, 19, 19]","[[1, 5, 3, 4, 1], [7, 6, 4, 6, 5], [3, 7, 4, 4, 7], [7, 2, 5, 3, 5], [6, 3, 9, 2, 9]]","[[0, 2, 0, 2, 0], [2, 0, 2, 2, 2], [2, 2, 2, 2, 0], [2, 2, 2, 2, 2], [2, 2, 0, 2, 2]]","[4, 1, 4, 13, 8]",18,13,0,0.054,0.0506666666666667,0.00333333333333333,"[15, 16, 17, 18, 19]",5,"extreme",5,5,6879,10,162,152,708358,"attentional-mouselab",17,241672,1
"46","mouselab","False","[]","[[6, 4, 4, 4, 6], [3, 4, 6, 5, 4], [6, 3, 8, 4, 9], [6, 0, 6, 4, 5], [6, 4, 6, 7, 2]]","[[2, 0, 2, 2, 2], [2, 2, 0, 2, 2], [2, 2, 0, 2, 2], [0, 2, 0, 2, 2], [2, 2, 0, 2, 2]]","[6, 3, 10, 10, 1]",16,14,2,0.063,0.063,0,"[]",0,"greedy",5,5,7391,0,188,188,570958,"attentional-mouselab",18,250262,1
"47","mouselab","False","[21, 21, 22, 22, 23, 23, 24, 24]","[[4, 4, 8, 2, 5], [5, 9, 7, 5, 7], [7, 5, 6, 1, 6], [3, 4, 6, 6, 5], [9, 5, 5, 7, 5]]","[[0, 2, 2, 2, 2], [2, 2, 0, 2, 0], [0, 2, 2, 2, 2], [2, 2, 0, 2, 2], [0, 2, 2, 2, 2]]","[3, 9, 4, 1, 13]",20,15,0,0.068,0.0653333333333333,0.00266666666666667,"[21, 22, 23, 24]",4,"random",5,5,7297,8,205,197,953885,"attentional-mouselab",19,258502,1
"48","mouselab","False","[15, 15, 17, 17, 18, 18, 19, 19]","[[5, 1, 3, 8, 6], [1, 6, 6, 4, 4], [5, 5, 2, 8, 7], [5, 8, 7, 8, 3], [6, 5, 7, 4, 5]]","[[2, 0, 2, 0, 2], [0, 2, 2, 0, 2], [2, 2, 0, 2, 2], [2, 0, 2, 2, 2], [2, 2, 2, 2, 2]]","[7, 5, 3, 13, 2]",16,16,3,0.071,0.0683333333333333,0.00266666666666667,"[15, 17, 18, 19]",4,"extreme",5,5,10965,8,212,204,826055,"attentional-mouselab",20,270368,1
"49","mouselab","False","[10, 10, 11, 11, 12, 12, 13, 13, 14, 14]","[[7, 6, 6, 5, 7], [1, 6, 2, 6, 6], [7, 8, 5, 8, 4], [5, 6, 6, 4, 7], [9, 5, 4, 6, 3]]","[[2, 2, 2, 2, 0], [0, 2, 2, 2, 2], [2, 2, 2, 2, 2], [0, 2, 2, 2, 2], [0, 0, 2, 2, 0]]","[7, 7, 12, 2, 2]",16,17,1,0.067,0.0636666666666667,0.00333333333333333,"[10, 11, 12, 13, 14]",5,"random",5,5,8113,10,202,192,910605,"attentional-mouselab",21,279952,1
"50","mouselab","False","[5, 5, 6, 6, 8, 8, 9, 9]","[[2, 5, 5, 9, 6], [5, 5, 3, 7, 4], [5, 4, 5, 7, 5], [3, 4, 6, 5, 8], [6, 6, 5, 4, 2]]","[[0, 2, 2, 0, 2], [2, 2, 0, 2, 2], [2, 2, 0, 2, 2], [2, 2, 2, 2, 0], [2, 2, 2, 2, 0]]","[7, 9, 2, 8, 4]",12,18,3,0.065,0.0623333333333333,0.00266666666666667,"[5, 6, 8, 9]",4,"extreme",5,5,5999,8,196,188,638297,"attentional-mouselab",22,286830,1
"51","mouselab","False","[10, 10, 11, 11, 12, 12, 13, 13, 14, 14]","[[3, 6, 5, 8, 3], [3, 4, 5, 5, 6], [4, 5, 7, 4, 3], [4, 3, 4, 5, 5], [6, 8, 4, 7, 2]]","[[2, 0, 2, 2, 2], [2, 2, 2, 2, 0], [2, 2, 2, 2, 2], [2, 2, 2, 2, 2], [0, 0, 0, 2, 0]]","[3, 5, 15, 6, 1]",18,19,2,0.058,0.0546666666666667,0.00333333333333333,"[10, 11, 12, 13, 14]",5,"random",5,5,5523,10,173,163,56605,"attentional-mouselab",23,293280,1
"52","mouselab","False","[23, 23, 6, 6, 7, 7, 8, 8, 9, 9]","[[2, 5, 6, 9, 5], [5, 6, 8, 6, 4], [7, 4, 6, 4, 7], [2, 7, 5, 6, 5], [4, 5, 5, 4, 5]]","[[2, 2, 2, 2, 2], [0, 2, 2, 2, 2], [2, 2, 2, 2, 2], [2, 2, 0, 2, 2], [0, 0, 0, 2, 0]]","[3, 9, 2, 4, 12]",18,20,2,0.061,0.0576666666666667,0.00333333333333333,"[23, 6, 7, 8, 9]",5,"random",5,5,9371,10,182,172,663879,"attentional-mouselab",24,303662,1
"53","mouselab","False","[16, 16, 17, 17, 18, 18, 19, 19]","[[6, 6, 6, 2, 4], [5, 8, 5, 6, 5], [5, 6, 5, 4, 4], [3, 5, 4, 3, 5], [7, 3, 4, 7, 4]]","[[2, 2, 2, 0, 2], [2, 0, 2, 2, 2], [2, 2, 2, 2, 0], [0, 2, 2, 2, 2], [0, 2, 2, 0, 2]]","[6, 3, 5, 9, 7]",8,21,1,0.052,0.0493333333333333,0.00266666666666667,"[16, 17, 18, 19]",4,"extreme",5,5,11315,8,156,148,977611,"attentional-mouselab",25,315878,1
"54","mouselab","False","[16, 16, 17, 17]","[[4, 3, 5, 7, 6], [1, 5, 5, 5, 8], [5, 7, 5, 6, 4], [4, 3, 6, 7, 7], [5, 3, 3, 8, 2]]","[[2, 2, 2, 0, 2], [2, 2, 2, 2, 2], [2, 2, 2, 2, 2], [0, 2, 2, 0, 0], [0, 2, 2, 0, 2]]","[3, 3, 1, 15, 8]",22,22,3,0.07,0.0686666666666667,0.00133333333333333,"[16, 17]",2,"greedy",5,5,5385,4,211,207,419683,"attentional-mouselab",26,322220,1
"55","mouselab","False","[5, 5, 6, 6, 7, 7]","[[1, 5, 7, 4, 6], [7, 4, 6, 9, 0], [4, 5, 4, 4, 6], [2, 7, 5, 6, 2], [4, 8, 1, 6, 5]]","[[2, 2, 2, 2, 2], [2, 2, 2, 0, 0], [2, 0, 2, 2, 2], [2, 0, 2, 2, 2], [2, 0, 2, 2, 0]]","[1, 10, 3, 9, 7]",16,23,3,0.067,0.065,0.002,"[5, 6, 7]",3,"greedy",5,5,6805,6,202,196,829416,"attentional-mouselab",27,329826,1
"56","mouselab","False","[10, 10, 11, 11, 12, 12, 13, 13, 14, 14]","[[6, 6, 6, 4, 6], [6, 5, 4, 4, 4], [6, 6, 3, 9, 6], [4, 4, 9, 9, 4], [4, 4, 7, 5, 7]]","[[2, 0, 2, 2, 2], [0, 2, 2, 2, 2], [2, 2, 2, 2, 2], [2, 2, 2, 2, 0], [0, 0, 2, 2, 0]]","[2, 3, 21, 2, 2]",30,24,3,0.079,0.0756666666666667,0.00333333333333333,"[10, 11, 12, 13, 14]",5,"random",5,5,6115,10,237,227,138158,"attentional-mouselab",28,336812,1
"57","mouselab","False","[10, 10, 13, 13, 14, 14]","[[5, 8, 0, 6, 4], [5, 6, 5, 5, 8], [3, 4, 3, 8, 10], [5, 3, 3, 7, 3], [5, 6, 3, 5, 4]]","[[2, 2, 2, 0, 2], [2, 2, 2, 2, 2], [2, 0, 0, 2, 2], [2, 2, 0, 2, 2], [2, 2, 0, 2, 0]]","[6, 5, 13, 1, 5]",14,25,4,0.072,0.07,0.002,"[10, 13, 14]",3,"random",5,5,4793,6,217,211,619753,"attentional-mouselab",29,342414,1
"58","mouselab","False","[20, 20, 22, 22, 23, 23, 24, 24]","[[4, 6, 6, 7, 6], [6, 4, 1, 2, 2], [3, 5, 5, 4, 5], [7, 7, 1, 7, 4], [6, 4, 6, 2, 6]]","[[2, 0, 2, 2, 2], [2, 0, 0, 2, 0], [2, 2, 2, 2, 2], [0, 2, 2, 2, 2], [2, 0, 2, 2, 2]]","[2, 2, 2, 4, 20]",28,26,0,0.058,0.0553333333333333,0.00266666666666667,"[20, 22, 23, 24]",4,"greedy",5,5,6423,8,174,166,902252,"attentional-mouselab",30,350152,1
"59","mouselab","False","[5, 5, 7, 7, 8, 8, 9, 9]","[[3, 6, 3, 3, 4], [3, 2, 6, 4, 5], [5, 5, 4, 3, 4], [4, 5, 5, 4, 6], [8, 4, 3, 5, 7]]","[[0, 2, 2, 2, 2], [2, 0, 2, 2, 2], [2, 2, 0, 0, 2], [2, 2, 0, 2, 2], [0, 2, 2, 2, 2]]","[1, 12, 1, 8, 8]",20,27,2,0.048,0.0453333333333333,0.00266666666666667,"[5, 7, 8, 9]",4,"extreme",5,5,5569,8,143,135,629743,"attentional-mouselab",31,356444,1
"60","mouselab","False","[5, 5, 6, 6, 8, 8, 9, 9]","[[6, 4, 5, 6, 2], [4, 5, 2, 4, 6], [5, 5, 6, 10, 7], [3, 5, 6, 5, 4], [7, 7, 4, 6, 6]]","[[2, 2, 2, 0, 2], [2, 2, 0, 2, 2], [2, 2, 2, 0, 2], [2, 2, 0, 2, 2], [2, 2, 0, 0, 2]]","[5, 14, 2, 5, 4]",16,28,4,0.051,0.0483333333333333,0.00266666666666667,"[5, 6, 8, 9]",4,"greedy",5,5,5439,8,152,144,18232,"attentional-mouselab",32,362792,1
"61","mouselab","False","[21, 21, 22, 22, 23, 23, 24, 24]","[[4, 5, 5, 3, 5], [5, 4, 4, 5, 6], [5, 6, 5, 7, 5], [4, 5, 5, 6, 4], [7, 5, 5, 7, 3]]","[[0, 2, 2, 0, 0], [2, 2, 2, 2, 2], [0, 2, 2, 0, 2], [2, 2, 2, 2, 2], [0, 2, 2, 2, 2]]","[8, 3, 2, 5, 12]",16,29,3,0.056,0.0533333333333333,0.00266666666666667,"[21, 22, 23, 24]",4,"extreme",5,5,7543,8,167,159,977294,"attentional-mouselab",33,371120,1
"62","mouselab","False","[15, 15, 16, 16, 18, 18, 19, 19]","[[9, 3, 8, 2, 4], [4, 5, 4, 9, 6], [7, 4, 7, 5, 7], [4, 1, 5, 6, 7], [6, 4, 7, 6, 4]]","[[2, 2, 0, 2, 2], [2, 0, 2, 0, 2], [0, 2, 2, 2, 2], [2, 2, 0, 2, 2], [2, 2, 0, 2, 2]]","[1, 3, 4, 18, 4]",24,30,4,0.064,0.0613333333333333,0.00266666666666667,"[15, 16, 18, 19]",4,"greedy",5,5,4553,8,192,184,259092,"attentional-mouselab",34,376668,1
"63","mouselab","False","[20, 20, 21, 21, 22, 22, 23, 23, 24, 24]","[[3, 5, 6, 4, 6], [6, 4, 8, 3, 4], [7, 5, 7, 7, 10], [3, 3, 5, 6, 1], [6, 6, 5, 3, 5]]","[[2, 0, 0, 2, 0], [2, 0, 2, 2, 0], [2, 2, 2, 0, 2], [2, 2, 2, 2, 2], [2, 2, 2, 2, 2]]","[3, 7, 4, 7, 9]",10,31,1,0.046,0.0426666666666667,0.00333333333333333,"[20, 21, 22, 23, 24]",5,"random",5,5,7971,10,138,128,768671,"attentional-mouselab",35,385704,1
"64","mouselab","False","[16, 16, 17, 17, 18, 18, 19, 19]","[[3, 6, 5, 9, 4], [1, 6, 6, 5, 5], [2, 2, 5, 0, 9], [7, 3, 5, 7, 5], [7, 9, 7, 5, 3]]","[[2, 2, 0, 2, 2], [0, 2, 2, 2, 2], [2, 2, 2, 0, 2], [0, 2, 2, 2, 2], [2, 0, 2, 0, 2]]","[2, 6, 6, 12, 4]",12,32,3,0.051,0.0483333333333333,0.00266666666666667,"[16, 17, 18, 19]",4,"extreme",5,5,10417,8,152,144,289346,"attentional-mouselab",36,397054,1
"65","mouselab","True","[1, 1, 4, 4, 0, 0, 2, 1, 6, 2, 3]","[[6, 8, 6, 5, 8], [2, 7, 6, 6, 2], [5, 5, 6, 0, 4], [3, 5, 5, 9, 5], [7, 4, 3, 6, 6]]","[[2, 2, 2, 2, 2], [2, 2, 2, 0, 2], [2, 0, 2, 2, 2], [2, 0, 2, 2, 2], [2, 0, 2, 0, 0]]","[16, 6, 5, 2, 1]",20,1,1,0.07,0.0666666666666667,0.00333333333333333,"[1, 4, 0, 2]",4,"random",5,5,49889,10,209,199,743336,"attentional-mouselab",4,264902,2
"66","mouselab","True","[]","[[9, 6, 5, 4, 6], [4, 4, 4, 6, 8], [5, 5, 4, 3, 6], [8, 5, 5, 0, 5], [5, 4, 5, 3, 3]]","[[0, 2, 2, 2, 2], [2, 2, 2, 0, 2], [2, 0, 0, 2, 2], [0, 0, 2, 2, 2], [2, 2, 2, 2, 2]]","[9, 7, 2, 7, 5]",10,2,0,0.067,0.067,0,"[]",0,"random",5,5,2803,0,200,200,256383,"attentional-mouselab",5,273326,2
"67","mouselab","False","[]","[[4, 4, 4, 5, 5], [5, 6, 7, 5, 2], [5, 3, 5, 4, 4], [6, 6, 5, 3, 6], [3, 5, 4, 4, 7]]","[[2, 2, 0, 0, 0], [2, 2, 2, 0, 2], [2, 2, 0, 2, 2], [2, 2, 2, 2, 2], [2, 2, 2, 2, 0]]","[7, 4, 6, 2, 11]",12,3,4,0.052,0.052,0,"[]",0,"random",5,5,8586,0,156,156,75951,"attentional-mouselab",7,289498,2
"68","mouselab","False","[2, 2, 1, 1, 3, 3]","[[6, 5, 5, 5, 5], [7, 7, 5, 7, 4], [4, 4, 4, 2, 6], [6, 4, 4, 5, 6], [4, 6, 3, 3, 4]]","[[0, 2, 2, 2, 0], [2, 2, 2, 2, 2], [2, 0, 2, 2, 2], [0, 2, 2, 0, 2], [0, 2, 2, 2, 2]]","[12, 11, 2, 2, 3]",22,4,0,0.06,0.058,0.002,"[2, 1, 3]",3,"random",5,5,16143,6,181,175,662903,"attentional-mouselab",8,308632,2
"69","mouselab","False","[8, 8]","[[4, 6, 2, 3, 9], [6, 5, 5, 5, 7], [3, 4, 4, 6, 3], [3, 7, 5, 6, 6], [4, 5, 5, 5, 6]]","[[2, 0, 0, 2, 0], [2, 0, 2, 2, 2], [0, 2, 2, 2, 2], [2, 2, 0, 2, 2], [2, 2, 2, 2, 2]]","[2, 10, 2, 10, 6]",16,5,4,0.063,0.0623333333333333,0.000666666666666667,"[8]",1,"extreme",5,5,13410,2,190,188,640542,"attentional-mouselab",9,325251,2
"70","mouselab","False","[15, 15, 16, 16, 19, 19]","[[5, 6, 4, 4, 5], [2, 1, 5, 8, 4], [6, 3, 3, 6, 4], [5, 6, 5, 3, 3], [6, 5, 5, 6, 6]]","[[2, 2, 2, 2, 2], [2, 2, 0, 2, 2], [2, 2, 2, 2, 2], [2, 2, 0, 0, 2], [0, 2, 2, 0, 0]]","[5, 7, 2, 10, 6]",10,6,1,0.044,0.042,0.002,"[15, 16, 19]",3,"random",5,5,14911,6,133,127,214646,"attentional-mouselab",10,342306,2
"71","mouselab","False","[20, 20, 23, 23, 0, 0]","[[6, 2, 4, 7, 7], [6, 4, 8, 6, 3], [6, 5, 4, 6, 5], [5, 4, 2, 3, 7], [5, 2, 3, 3, 5]]","[[2, 0, 2, 2, 2], [2, 0, 2, 0, 2], [2, 2, 0, 2, 2], [2, 2, 2, 2, 2], [2, 0, 0, 2, 2]]","[8, 1, 8, 2, 11]",18,7,0,0.056,0.054,0.002,"[20, 23, 0]",3,"random",5,5,8941,6,167,161,606596,"attentional-mouselab",11,352995,2
"72","mouselab","False","[12, 12, 10, 10]","[[5, 6, 8, 5, 3], [7, 5, 6, 7, 8], [4, 7, 6, 5, 6], [1, 3, 4, 6, 5], [4, 5, 3, 1, 3]]","[[2, 2, 0, 2, 2], [2, 2, 0, 2, 0], [2, 2, 2, 2, 2], [0, 2, 0, 2, 2], [2, 2, 2, 0, 2]]","[5, 2, 13, 6, 4]",14,8,2,0.055,0.0536666666666667,0.00133333333333333,"[12, 10]",2,"extreme",5,5,13028,4,166,162,968749,"attentional-mouselab",12,368580,2
"73","mouselab","False","[]","[[5, 5, 3, 3, 2], [4, 4, 7, 8, 6], [5, 5, 5, 10, 9], [6, 7, 3, 7, 4], [6, 2, 3, 4, 6]]","[[2, 2, 2, 0, 0], [2, 0, 2, 0, 2], [2, 2, 2, 0, 2], [2, 2, 2, 0, 2], [2, 2, 2, 2, 2]]","[1, 16, 1, 7, 5]",22,9,3,0.07,0.07,0,"[]",0,"greedy",5,5,4274,0,210,210,744170,"attentional-mouselab",13,376462,2
"74","mouselab","False","[5, 5, 6, 6]","[[8, 5, 6, 5, 4], [6, 6, 5, 2, 7], [6, 9, 3, 2, 2], [6, 3, 9, 0, 6], [3, 7, 3, 7, 5]]","[[2, 2, 2, 2, 2], [2, 2, 2, 2, 2], [2, 0, 0, 2, 2], [2, 2, 0, 0, 2], [2, 0, 2, 0, 2]]","[6, 10, 4, 7, 3]",10,10,1,0.056,0.0546666666666667,0.00133333333333333,"[5, 6]",2,"extreme",5,5,9852,4,168,164,753922,"attentional-mouselab",14,388414,2
"75","mouselab","False","[1, 1, 0, 0, 2, 2, 3, 3]","[[5, 6, 5, 7, 6], [3, 3, 6, 6, 6], [4, 8, 5, 6, 7], [3, 6, 6, 6, 5], [7, 1, 3, 4, 7]]","[[2, 2, 2, 2, 0], [2, 2, 2, 0, 2], [2, 0, 2, 2, 2], [2, 0, 2, 2, 2], [2, 2, 2, 0, 0]]","[16, 3, 6, 3, 2]",20,11,3,0.064,0.0613333333333333,0.00266666666666667,"[1, 0, 2, 3]",4,"random",5,5,10824,8,192,184,885022,"attentional-mouselab",15,402932,2
"76","mouselab","False","[10, 10]","[[10, 4, 4, 3, 4], [7, 6, 4, 10, 5], [5, 5, 7, 6, 4], [6, 5, 3, 6, 7], [3, 7, 5, 4, 1]]","[[0, 2, 2, 0, 2], [2, 2, 0, 0, 2], [2, 2, 2, 0, 2], [2, 2, 2, 2, 2], [2, 0, 2, 2, 2]]","[2, 4, 17, 2, 5]",22,12,3,0.06,0.0593333333333333,0.000666666666666667,"[10]",1,"greedy",5,5,5762,2,180,178,657365,"attentional-mouselab",16,412029,2
"77","mouselab","False","[22, 22, 23, 23]","[[6, 5, 4, 6, 8], [4, 4, 6, 3, 6], [5, 4, 5, 5, 7], [8, 6, 2, 3, 6], [4, 6, 6, 6, 3]]","[[2, 2, 2, 2, 2], [0, 0, 2, 2, 2], [0, 2, 2, 2, 0], [2, 2, 0, 2, 2], [0, 2, 2, 2, 2]]","[1, 6, 9, 3, 11]",16,13,3,0.048,0.0466666666666667,0.00133333333333333,"[22, 23]",2,"random",5,5,8483,4,144,140,478643,"attentional-mouselab",17,423455,2
"78","mouselab","False","[]","[[3, 4, 4, 3, 5], [5, 5, 6, 5, 5], [6, 3, 5, 6, 6], [7, 5, 5, 6, 5], [7, 2, 8, 4, 5]]","[[2, 2, 2, 2, 2], [0, 2, 2, 2, 2], [0, 2, 0, 2, 2], [0, 2, 2, 2, 2], [2, 0, 0, 2, 2]]","[3, 7, 1, 12, 7]",16,14,0,0.061,0.061,0,"[]",0,"greedy",5,5,4455,0,183,183,397005,"attentional-mouselab",18,430588,2
"79","mouselab","False","[]","[[6, 1, 5, 5, 7], [3, 5, 6, 5, 5], [3, 4, 4, 3, 4], [6, 5, 4, 5, 4], [4, 5, 7, 5, 3]]","[[2, 2, 2, 2, 0], [2, 2, 2, 2, 2], [2, 2, 2, 0, 2], [2, 2, 2, 2, 2], [0, 2, 0, 0, 0]]","[6, 2, 9, 7, 6]",8,15,1,0.039,0.039,0,"[]",0,"greedy",5,5,6085,0,117,117,167262,"attentional-mouselab",19,438649,2
"80","mouselab","False","[18, 18, 19, 19]","[[3, 5, 6, 4, 6], [6, 4, 8, 3, 4], [7, 5, 7, 7, 10], [3, 3, 5, 6, 1], [6, 6, 5, 3, 5]]","[[2, 0, 0, 2, 0], [2, 2, 0, 2, 2], [2, 2, 0, 2, 2], [2, 0, 2, 2, 2], [2, 2, 2, 2, 2]]","[3, 6, 6, 13, 2]",14,16,3,0.052,0.0506666666666667,0.00133333333333333,"[18, 19]",2,"greedy",5,5,6728,4,156,152,768671,"attentional-mouselab",20,447742,2
"81","mouselab","False","[1, 1, 3, 3]","[[3, 5, 2, 4, 3], [4, 5, 3, 7, 5], [5, 5, 4, 3, 3], [4, 7, 2, 5, 3], [6, 5, 5, 8, 7]]","[[0, 2, 2, 2, 2], [2, 2, 0, 0, 2], [2, 2, 2, 2, 2], [2, 0, 2, 2, 2], [0, 2, 2, 0, 2]]","[10, 6, 3, 10, 1]",16,17,1,0.057,0.0556666666666667,0.00133333333333333,"[1, 3]",2,"greedy",5,5,12869,4,170,166,901111,"attentional-mouselab",21,463276,2
"82","mouselab","False","[15, 15, 11, 11, 16, 16, 17, 17, 18, 18]","[[8, 5, 8, 6, 7], [4, 6, 5, 7, 6], [5, 5, 5, 6, 5], [3, 4, 3, 4, 2], [6, 7, 7, 3, 4]]","[[0, 2, 0, 2, 2], [2, 2, 2, 2, 2], [2, 2, 2, 2, 2], [2, 2, 2, 2, 0], [2, 0, 2, 0, 0]]","[1, 1, 11, 12, 5]",22,18,1,0.05,0.0466666666666667,0.00333333333333333,"[15, 11, 16, 17, 18]",5,"extreme",5,5,12689,10,149,139,697436,"attentional-mouselab",22,478197,2
"83","mouselab","False","[8, 8]","[[6, 6, 6, 6, 3], [7, 2, 4, 7, 3], [7, 4, 3, 8, 2], [5, 4, 5, 4, 4], [3, 4, 4, 7, 7]]","[[0, 2, 0, 2, 0], [2, 2, 0, 2, 2], [2, 2, 0, 2, 2], [0, 2, 2, 2, 2], [2, 2, 2, 2, 2]]","[6, 15, 2, 4, 3]",18,19,3,0.065,0.0643333333333333,0.000666666666666667,"[8]",1,"random",5,5,5757,2,194,192,903809,"attentional-mouselab",23,486258,2
"84","mouselab","False","[0, 0, 1, 1, 3, 3]","[[6, 5, 4, 6, 4], [7, 1, 6, 3, 1], [5, 3, 2, 3, 5], [6, 5, 7, 7, 3], [4, 3, 4, 7, 3]]","[[2, 2, 2, 2, 2], [2, 2, 0, 2, 2], [0, 2, 0, 2, 0], [2, 2, 0, 2, 2], [2, 2, 0, 2, 2]]","[15, 4, 6, 3, 2]",18,20,0,0.058,0.056,0.002,"[0, 1, 3]",3,"random",5,5,8889,6,174,168,483349,"attentional-mouselab",24,497402,2
"85","mouselab","False","[]","[[1, 3, 6, 6, 2], [4, 3, 3, 3, 6], [6, 5, 5, 5, 6], [4, 8, 4, 5, 6], [10, 5, 4, 3, 7]]","[[0, 2, 2, 0, 2], [0, 0, 2, 2, 2], [2, 2, 2, 2, 2], [2, 0, 2, 2, 2], [0, 2, 2, 2, 2]]","[1, 2, 4, 10, 13]",22,21,0,0.068,0.068,0,"[]",0,"extreme",5,5,6938,0,203,203,155618,"attentional-mouselab",25,506522,2
"86","mouselab","False","[1, 1, 2, 2]","[[3, 2, 3, 6, 6], [4, 5, 6, 6, 4], [3, 6, 9, 7, 5], [3, 5, 6, 7, 2], [5, 5, 3, 3, 6]]","[[2, 2, 2, 2, 2], [2, 2, 0, 0, 2], [2, 2, 0, 2, 2], [2, 2, 2, 2, 0], [2, 2, 0, 2, 0]]","[11, 6, 6, 3, 4]",10,22,2,0.051,0.0496666666666667,0.00133333333333333,"[1, 2]",2,"random",5,5,7015,4,153,149,778556,"attentional-mouselab",26,515056,2
"87","mouselab","False","[]","[[4, 7, 4, 6, 5], [6, 4, 8, 8, 4], [4, 5, 6, 7, 2], [4, 7, 9, 6, 4], [4, 7, 6, 7, 6]]","[[2, 2, 2, 2, 2], [2, 0, 2, 0, 0], [2, 2, 2, 0, 2], [2, 2, 0, 0, 2], [2, 2, 2, 2, 2]]","[1, 11, 11, 6, 1]",20,23,3,0.071,0.071,0,"[]",0,"greedy",5,5,4293,0,214,214,962945,"attentional-mouselab",27,521846,2
"88","mouselab","False","[]","[[4, 0, 6, 6, 5], [6, 6, 3, 3, 3], [5, 5, 5, 4, 3], [5, 4, 2, 4, 6], [4, 7, 3, 5, 4]]","[[2, 0, 2, 2, 2], [2, 2, 2, 0, 2], [2, 2, 2, 2, 2], [2, 0, 0, 2, 2], [2, 0, 0, 2, 2]]","[3, 8, 5, 3, 11]",14,24,1,0.054,0.054,0,"[]",0,"extreme",5,5,6621,0,162,162,374283,"attentional-mouselab",28,530709,2
"89","mouselab","False","[]","[[4, 9, 7, 5, 6], [6, 4, 6, 5, 4], [6, 10, 3, 7, 6], [5, 5, 2, 5, 5], [6, 4, 7, 4, 8]]","[[0, 0, 2, 2, 2], [2, 2, 2, 2, 2], [2, 0, 2, 2, 2], [2, 2, 0, 2, 2], [0, 2, 2, 2, 0]]","[6, 5, 11, 6, 2]",10,25,1,0.074,0.074,0,"[]",0,"extreme",5,5,4310,0,222,222,924177,"attentional-mouselab",29,538183,2
"90","mouselab","False","[6, 6]","[[6, 3, 6, 3, 5], [6, 6, 3, 3, 7], [6, 6, 3, 6, 6], [2, 7, 5, 3, 6], [2, 8, 4, 2, 5]]","[[2, 2, 0, 2, 0], [2, 2, 2, 2, 0], [2, 2, 2, 2, 0], [0, 2, 2, 2, 2], [2, 0, 2, 2, 2]]","[4, 11, 2, 10, 3]",18,26,4,0.061,0.0603333333333333,0.000666666666666667,"[6]",1,"greedy",5,5,6481,2,184,182,617849,"attentional-mouselab",30,547003,2
"91","mouselab","False","[16, 16]","[[8, 4, 6, 7, 7], [6, 3, 4, 5, 5], [4, 4, 4, 5, 7], [3, 3, 5, 6, 5], [8, 5, 5, 5, 6]]","[[0, 2, 2, 2, 0], [2, 2, 2, 2, 0], [2, 2, 2, 2, 0], [0, 2, 2, 2, 2], [0, 2, 2, 2, 2]]","[2, 3, 2, 10, 13]",22,27,0,0.059,0.0583333333333333,0.000666666666666667,"[16]",1,"extreme",5,5,7137,2,176,174,98159,"attentional-mouselab",31,555897,2
"92","mouselab","False","[5, 5]","[[5, 6, 4, 4, 4], [4, 6, 7, 4, 5], [3, 4, 2, 6, 5], [2, 4, 5, 3, 3], [6, 4, 8, 3, 5]]","[[2, 2, 2, 2, 2], [2, 2, 0, 2, 2], [0, 2, 0, 2, 2], [2, 2, 2, 2, 0], [2, 0, 0, 2, 2]]","[3, 12, 4, 3, 8]",16,28,2,0.061,0.0603333333333333,0.000666666666666667,"[5]",1,"greedy",5,5,6257,2,183,181,467,"attentional-mouselab",32,564217,2
"93","mouselab","False","[]","[[6, 4, 4, 4, 4], [6, 6, 8, 4, 8], [4, 6, 4, 2, 5], [4, 2, 5, 4, 6], [6, 9, 6, 4, 3]]","[[2, 2, 2, 2, 2], [2, 2, 0, 2, 2], [2, 2, 2, 0, 2], [2, 0, 0, 0, 2], [2, 0, 2, 2, 2]]","[4, 3, 9, 4, 10]",14,29,1,0.062,0.062,0,"[]",0,"extreme",5,5,6348,0,186,186,743910,"attentional-mouselab",33,572939,2
"94","mouselab","False","[]","[[7, 5, 7, 5, 3], [4, 3, 8, 6, 6], [8, 5, 5, 4, 7], [6, 7, 2, 4, 7], [7, 4, 2, 5, 3]]","[[2, 2, 2, 2, 0], [2, 2, 0, 2, 2], [0, 2, 2, 2, 2], [2, 2, 0, 2, 0], [2, 2, 0, 2, 2]]","[3, 6, 13, 2, 6]",14,30,0,0.068,0.068,0,"[]",0,"extreme",5,5,3416,0,203,203,887728,"attentional-mouselab",34,578901,2
"95","mouselab","False","[]","[[4, 4, 8, 6, 5], [7, 5, 3, 3, 4], [7, 9, 6, 4, 2], [4, 4, 8, 3, 6], [6, 7, 6, 1, 3]]","[[0, 2, 2, 0, 2], [2, 0, 2, 2, 2], [2, 0, 2, 2, 2], [2, 2, 2, 2, 0], [2, 2, 2, 2, 0]]","[7, 2, 10, 7, 4]",12,31,1,0.061,0.061,0,"[]",0,"random",5,5,4243,0,184,184,798714,"attentional-mouselab",35,585494,2
"96","mouselab","False","[]","[[8, 4, 4, 4, 5], [5, 6, 3, 4, 5], [6, 3, 6, 4, 4], [2, 7, 3, 5, 5], [5, 5, 6, 6, 5]]","[[0, 2, 0, 2, 2], [2, 0, 2, 2, 2], [2, 2, 2, 2, 2], [2, 0, 0, 0, 2], [2, 2, 2, 2, 2]]","[12, 5, 4, 3, 6]",12,32,0,0.06,0.06,0,"[]",0,"greedy",5,5,3293,0,181,181,791095,"attentional-mouselab",36,590890,2
"97","mouselab","True","[12, 12]","[[5, 3, 5, 3, 5], [7, 5, 3, 2, 4], [5, 5, 8, 3, 8], [3, 7, 2, 5, 4], [7, 3, 4, 10, 7]]","[[2, 2, 0, 2, 2], [2, 2, 2, 2, 0], [2, 0, 2, 2, 2], [2, 0, 2, 0, 2], [0, 2, 2, 2, 2]]","[3, 2, 3, 14, 8]",20,1,2,0.035,0.0343333333333333,0.000666666666666667,"[12]",1,"random",5,5,13432,2,105,103,188100,"attentional-mouselab",4,120508,3
"98","mouselab","True","[15, 15]","[[3, 4, 5, 5, 4], [4, 6, 3, 5, 1], [5, 5, 5, 6, 6], [5, 4, 4, 2, 5], [7, 3, 3, 3, 4]]","[[2, 0, 0, 2, 0], [2, 2, 0, 2, 2], [2, 2, 2, 2, 2], [2, 2, 2, 0, 2], [0, 2, 2, 2, 2]]","[2, 1, 5, 11, 11]",20,2,0,0.056,0.0553333333333333,0.000666666666666667,"[15]",1,"random",5,5,7339,2,167,165,574726,"attentional-mouselab",5,129858,3
"99","mouselab","False","[]","[[4, 7, 3, 4, 8], [3, 4, 3, 4, 4], [5, 3, 4, 5, 8], [6, 5, 2, 8, 6], [3, 7, 5, 4, 6]]","[[2, 2, 0, 2, 0], [2, 2, 0, 2, 2], [2, 2, 2, 2, 0], [2, 2, 2, 2, 0], [2, 2, 2, 0, 2]]","[9, 6, 8, 4, 3]",10,3,4,0.067,0.067,0,"[]",0,"greedy",5,5,5000,0,202,202,456533,"attentional-mouselab",7,139630,3
"100","mouselab","False","[]","[[5, 4, 4, 5, 5], [4, 6, 4, 6, 5], [6, 5, 6, 3, 7], [5, 5, 4, 0, 6], [7, 6, 7, 3, 2]]","[[0, 2, 2, 2, 2], [2, 2, 2, 2, 2], [0, 2, 2, 2, 2], [2, 2, 2, 0, 2], [0, 0, 2, 2, 0]]","[6, 5, 12, 4, 3]",12,4,0,0.054,0.054,0,"[]",0,"extreme",5,5,2585,0,163,163,699355,"attentional-mouselab",8,144345,3
"101","mouselab","False","[9, 9]","[[3, 5, 5, 2, 5], [5, 5, 6, 8, 3], [5, 6, 7, 2, 6], [3, 2, 7, 3, 4], [6, 4, 4, 7, 7]]","[[2, 2, 2, 2, 2], [0, 2, 2, 2, 2], [2, 0, 2, 2, 2], [2, 0, 2, 2, 2], [0, 2, 0, 2, 0]]","[6, 2, 15, 2, 5]",18,5,4,0.056,0.0553333333333333,0.000666666666666667,"[9]",1,"random",5,5,5776,2,169,167,635263,"attentional-mouselab",9,151396,3
"102","mouselab","False","[]","[[8, 5, 3, 1, 4], [5, 6, 5, 4, 4], [6, 6, 3, 4, 4], [4, 2, 5, 2, 6], [7, 5, 4, 4, 7]]","[[0, 2, 2, 0, 2], [2, 2, 2, 2, 2], [0, 2, 2, 2, 2], [2, 0, 2, 0, 2], [2, 0, 2, 2, 2]]","[2, 5, 11, 7, 5]",12,6,0,0.057,0.057,0,"[]",0,"extreme",5,5,3130,0,170,170,550201,"attentional-mouselab",10,156231,3
"103","mouselab","False","[23, 23]","[[5, 8, 6, 7, 7], [5, 5, 5, 7, 4], [6, 7, 4, 6, 6], [8, 4, 8, 6, 4], [6, 4, 6, 5, 3]]","[[2, 2, 2, 2, 2], [2, 2, 2, 0, 2], [2, 0, 0, 0, 2], [2, 0, 2, 2, 2], [2, 2, 0, 2, 2]]","[12, 8, 6, 2, 2]",16,7,3,0.066,0.0653333333333333,0.000666666666666667,"[23]",1,"random",5,5,5194,2,198,196,660895,"attentional-mouselab",11,163114,3
"104","mouselab","False","[]","[[5, 3, 3, 5, 6], [2, 3, 4, 4, 4], [1, 2, 6, 8, 4], [8, 5, 3, 5, 7], [8, 6, 4, 4, 4]]","[[2, 2, 2, 2, 2], [0, 2, 2, 2, 2], [0, 2, 2, 2, 2], [0, 2, 2, 2, 0], [0, 2, 2, 2, 0]]","[7, 3, 7, 6, 7]",6,8,2,0.04,0.04,0,"[]",0,"extreme",5,5,4026,0,121,121,340255,"attentional-mouselab",12,168842,3
"105","mouselab","False","[19, 19]","[[5, 8, 4, 4, 7], [3, 5, 4, 5, 9], [4, 7, 4, 6, 4], [8, 7, 6, 1, 4], [4, 4, 6, 6, 6]]","[[2, 2, 2, 2, 2], [2, 0, 2, 2, 0], [0, 2, 2, 2, 2], [0, 2, 0, 0, 2], [2, 2, 2, 2, 2]]","[9, 8, 3, 7, 3]",12,9,4,0.064,0.0633333333333333,0.000666666666666667,"[19]",1,"extreme",5,5,3849,2,193,191,658819,"attentional-mouselab",13,173763,3
"106","mouselab","False","[16, 16]","[[4, 5, 6, 4, 4], [4, 4, 7, 7, 3], [6, 2, 6, 5, 6], [6, 4, 7, 6, 5], [4, 4, 6, 8, 6]]","[[2, 2, 0, 0, 2], [2, 2, 0, 2, 2], [0, 2, 0, 2, 2], [2, 2, 0, 2, 2], [2, 2, 2, 2, 2]]","[8, 1, 2, 5, 14]",20,10,1,0.041,0.0403333333333333,0.000666666666666667,"[16]",1,"greedy",5,5,5881,2,124,122,701192,"attentional-mouselab",14,181016,3
"107","mouselab","False","[13, 13]","[[5, 7, 4, 8, 7], [3, 5, 7, 5, 3], [8, 6, 5, 7, 3], [6, 6, 5, 6, 8], [5, 4, 4, 6, 7]]","[[2, 2, 2, 0, 2], [0, 2, 2, 2, 2], [0, 0, 2, 2, 2], [2, 2, 2, 2, 0], [2, 2, 0, 2, 2]]","[2, 1, 18, 4, 5]",24,11,3,0.067,0.0663333333333333,0.000666666666666667,"[13]",1,"extreme",5,5,3614,2,201,199,691649,"attentional-mouselab",15,186053,3
"108","mouselab","False","[]","[[0, 8, 5, 6, 5], [6, 5, 10, 4, 6], [1, 6, 1, 5, 7], [9, 4, 7, 3, 6], [7, 7, 4, 5, 4]]","[[2, 2, 2, 2, 0], [0, 0, 2, 2, 2], [2, 0, 2, 2, 2], [2, 2, 0, 2, 2], [2, 2, 2, 2, 0]]","[1, 4, 22, 1, 2]",32,12,1,0.059,0.059,0,"[]",0,"random",5,5,2887,0,178,178,359744,"attentional-mouselab",16,190092,3
"109","mouselab","False","[18, 18]","[[4, 4, 2, 4, 5], [2, 5, 6, 7, 5], [4, 3, 7, 5, 6], [7, 3, 5, 7, 6], [5, 4, 6, 6, 8]]","[[2, 2, 0, 2, 2], [0, 0, 2, 0, 2], [0, 2, 2, 2, 2], [2, 2, 2, 2, 2], [2, 2, 2, 2, 0]]","[2, 20, 3, 2, 3]",28,13,3,0.065,0.0643333333333333,0.000666666666666667,"[18]",1,"extreme",5,5,3014,2,195,193,44601,"attentional-mouselab",17,194402,3
"110","mouselab","False","[]","[[5, 7, 5, 7, 4], [4, 3, 6, 6, 8], [7, 5, 5, 8, 6], [6, 4, 5, 3, 5], [6, 2, 3, 7, 6]]","[[2, 2, 2, 2, 2], [0, 2, 2, 2, 0], [2, 0, 2, 0, 2], [2, 2, 2, 2, 2], [2, 0, 2, 2, 0]]","[2, 4, 6, 1, 17]",22,14,4,0.061,0.061,0,"[]",0,"extreme",5,5,3060,0,183,183,632819,"attentional-mouselab",18,198369,3
"111","mouselab","False","[]","[[4, 6, 7, 5, 7], [4, 4, 6, 8, 7], [7, 7, 4, 3, 1], [7, 6, 5, 5, 8], [7, 4, 3, 3, 5]]","[[2, 2, 2, 2, 2], [2, 0, 2, 2, 2], [0, 0, 0, 2, 2], [2, 2, 2, 2, 0], [0, 2, 2, 2, 2]]","[10, 5, 10, 4, 1]",16,15,0,0.055,0.055,0,"[]",0,"greedy",5,5,1997,0,165,165,842418,"attentional-mouselab",19,201567,3
"112","mouselab","False","[]","[[5, 7, 10, 4, 3], [3, 3, 4, 7, 6], [5, 8, 6, 7, 5], [4, 9, 8, 7, 6], [7, 6, 2, 6, 4]]","[[2, 2, 0, 2, 2], [2, 2, 2, 2, 2], [2, 0, 2, 2, 2], [2, 0, 0, 2, 0], [2, 2, 0, 2, 2]]","[12, 2, 8, 7, 1]",18,16,2,0.078,0.078,0,"[]",0,"extreme",5,5,1596,0,234,234,625668,"attentional-mouselab",20,204617,3
"113","mouselab","False","[6, 6]","[[8, 2, 6, 8, 3], [5, 1, 3, 4, 5], [5, 6, 5, 3, 1], [5, 5, 3, 4, 6], [4, 5, 8, 7, 4]]","[[2, 2, 2, 2, 2], [2, 2, 2, 2, 2], [2, 2, 2, 2, 0], [0, 2, 0, 0, 0], [2, 2, 0, 2, 2]]","[4, 1, 12, 9, 4]",18,17,2,0.049,0.0483333333333333,0.000666666666666667,"[6]",1,"random",5,5,3951,2,146,144,778493,"attentional-mouselab",21,209626,3
"114","mouselab","False","[]","[[4, 6, 7, 6, 6], [4, 6, 4, 6, 3], [10, 5, 4, 7, 5], [5, 5, 8, 6, 6], [8, 4, 5, 5, 6]]","[[2, 2, 2, 2, 2], [2, 2, 2, 2, 0], [0, 2, 2, 0, 2], [2, 2, 0, 2, 2], [0, 2, 2, 0, 2]]","[2, 4, 3, 4, 17]",22,18,0,0.07,0.07,0,"[]",0,"greedy",5,5,1957,0,210,210,578833,"attentional-mouselab",22,212951,3
"115","mouselab","False","[14, 14]","[[1, 3, 5, 8, 5], [6, 7, 6, 4, 8], [5, 4, 5, 3, 4], [5, 5, 4, 3, 5], [6, 7, 7, 7, 8]]","[[0, 2, 2, 2, 2], [2, 2, 2, 0, 2], [0, 0, 2, 2, 2], [2, 2, 2, 2, 2], [2, 0, 2, 2, 0]]","[1, 11, 13, 3, 2]",24,19,4,0.059,0.0583333333333333,0.000666666666666667,"[14]",1,"random",5,5,3145,2,176,174,440653,"attentional-mouselab",23,217208,3
"116","mouselab","False","[]","[[5, 5, 9, 6, 3], [7, 5, 2, 6, 6], [6, 4, 3, 3, 5], [3, 4, 5, 5, 2], [6, 6, 10, 5, 4]]","[[2, 2, 0, 2, 0], [0, 2, 0, 2, 2], [2, 2, 2, 2, 2], [2, 2, 2, 2, 0], [2, 2, 0, 2, 2]]","[1, 7, 3, 16, 3]",22,20,2,0.047,0.047,0,"[]",0,"extreme",5,5,1624,0,142,142,461929,"attentional-mouselab",24,219984,3
"117","mouselab","False","[14, 14]","[[4, 5, 7, 5, 5], [3, 4, 3, 7, 2], [5, 2, 6, 3, 5], [9, 6, 9, 5, 5], [6, 4, 4, 4, 4]]","[[2, 0, 0, 2, 2], [2, 2, 2, 0, 2], [0, 2, 0, 2, 2], [2, 2, 0, 2, 2], [2, 2, 2, 2, 2]]","[3, 3, 8, 15, 1]",22,21,2,0.072,0.0713333333333333,0.000666666666666667,"[14]",1,"greedy",5,5,3864,2,217,215,228528,"attentional-mouselab",25,224922,3
"118","mouselab","False","[11, 11]","[[3, 5, 7, 4, 7], [5, 4, 5, 4, 6], [4, 2, 5, 5, 4], [5, 6, 5, 2, 8], [9, 5, 6, 3, 3]]","[[2, 2, 0, 2, 2], [0, 2, 2, 2, 0], [2, 2, 2, 0, 2], [2, 2, 2, 2, 0], [2, 2, 2, 2, 0]]","[8, 5, 4, 8, 5]",8,22,4,0.06,0.0593333333333333,0.000666666666666667,"[11]",1,"greedy",5,5,3712,2,181,179,913158,"attentional-mouselab",26,229811,3
"119","mouselab","False","[6, 6]","[[4, 6, 1, 3, 7], [4, 3, 5, 3, 6], [4, 6, 4, 3, 5], [4, 8, 2, 6, 6], [8, 2, 4, 4, 4]]","[[2, 2, 2, 2, 2], [2, 2, 2, 2, 0], [0, 2, 2, 2, 0], [2, 0, 0, 0, 2], [2, 2, 2, 2, 2]]","[7, 8, 10, 4, 1]",14,23,4,0.058,0.0573333333333333,0.000666666666666667,"[6]",1,"random",5,5,3792,2,175,173,244191,"attentional-mouselab",27,234772,3
"120","mouselab","False","[13, 13]","[[6, 7, 6, 5, 2], [7, 6, 3, 9, 4], [7, 6, 4, 5, 4], [6, 5, 3, 4, 6], [6, 8, 6, 4, 2]]","[[2, 0, 2, 2, 2], [0, 2, 2, 2, 2], [0, 2, 2, 2, 2], [2, 2, 0, 2, 2], [2, 0, 0, 2, 2]]","[1, 7, 10, 10, 2]",18,24,4,0.045,0.0443333333333333,0.000666666666666667,"[13]",1,"greedy",5,5,3585,2,134,132,159915,"attentional-mouselab",28,239884,3
"121","mouselab","False","[14, 14]","[[4, 2, 4, 2, 6], [6, 6, 8, 7, 6], [7, 2, 6, 5, 6], [4, 4, 0, 5, 7], [5, 2, 4, 8, 5]]","[[2, 2, 0, 0, 0], [0, 2, 2, 2, 2], [2, 2, 2, 2, 2], [2, 2, 0, 2, 0], [2, 2, 2, 2, 2]]","[8, 3, 4, 6, 9]",10,25,4,0.059,0.0583333333333333,0.000666666666666667,"[14]",1,"random",5,5,2760,2,177,175,23353,"attentional-mouselab",29,243662,3
"122","mouselab","False","[13, 13]","[[5, 6, 6, 8, 5], [2, 5, 4, 5, 6], [4, 6, 5, 5, 6], [4, 2, 4, 2, 4], [6, 4, 4, 4, 4]]","[[2, 2, 0, 2, 2], [0, 2, 2, 2, 0], [0, 2, 2, 2, 0], [2, 0, 2, 2, 2], [2, 2, 2, 2, 2]]","[8, 12, 6, 3, 1]",16,26,3,0.055,0.0543333333333333,0.000666666666666667,"[13]",1,"random",5,5,3760,2,164,162,896705,"attentional-mouselab",30,248551,3
"123","mouselab","False","[13, 13]","[[5, 2, 5, 5, 6], [3, 6, 4, 3, 7], [8, 2, 5, 3, 3], [6, 4, 3, 3, 8], [7, 8, 6, 4, 6]]","[[2, 0, 2, 2, 2], [2, 0, 2, 2, 0], [0, 2, 2, 2, 2], [2, 0, 2, 2, 0], [2, 2, 2, 2, 2]]","[4, 6, 4, 10, 6]",8,27,2,0.043,0.0423333333333333,0.000666666666666667,"[13]",1,"random",5,5,2759,2,130,128,319227,"attentional-mouselab",31,252209,3
"124","mouselab","False","[12, 12]","[[2, 5, 6, 3, 2], [3, 6, 5, 3, 5], [4, 4, 10, 4, 4], [5, 4, 2, 6, 3], [5, 6, 2, 3, 2]]","[[2, 2, 2, 2, 0], [0, 2, 2, 2, 2], [2, 0, 2, 2, 0], [2, 2, 2, 2, 2], [2, 0, 2, 0, 2]]","[8, 10, 6, 3, 3]",12,28,2,0.057,0.0563333333333333,0.000666666666666667,"[12]",1,"random",5,5,2501,2,170,168,410833,"attentional-mouselab",32,255728,3
"125","mouselab","False","[14, 14]","[[4, 7, 5, 7, 8], [2, 6, 7, 6, 6], [5, 8, 5, 6, 3], [6, 9, 3, 3, 3], [3, 6, 5, 2, 8]]","[[2, 2, 2, 2, 2], [0, 2, 2, 2, 2], [0, 0, 0, 2, 2], [2, 0, 2, 2, 2], [2, 2, 2, 0, 2]]","[9, 5, 2, 5, 9]",12,29,1,0.069,0.0683333333333333,0.000666666666666667,"[14]",1,"extreme",5,5,4539,2,208,206,384428,"attentional-mouselab",33,261320,3
"126","mouselab","False","[]","[[5, 2, 5, 5, 5], [8, 5, 5, 4, 4], [5, 1, 4, 3, 9], [5, 7, 8, 5, 4], [5, 6, 4, 7, 5]]","[[2, 2, 0, 2, 0], [0, 2, 2, 2, 2], [2, 2, 2, 2, 0], [0, 2, 0, 2, 2], [2, 2, 2, 2, 2]]","[10, 2, 3, 4, 11]",18,30,4,0.052,0.052,0,"[]",0,"greedy",5,5,2558,0,156,156,773481,"attentional-mouselab",34,265038,3
"127","mouselab","False","[7, 7]","[[6, 5, 5, 6, 6], [4, 7, 7, 8, 6], [6, 8, 3, 7, 6], [6, 7, 4, 3, 5], [6, 4, 6, 6, 4]]","[[2, 2, 2, 2, 2], [2, 2, 2, 0, 0], [2, 0, 2, 2, 2], [0, 0, 2, 2, 2], [2, 2, 2, 0, 2]]","[2, 2, 4, 5, 17]",22,31,2,0.053,0.0523333333333333,0.000666666666666667,"[7]",1,"greedy",5,5,3684,2,158,156,172527,"attentional-mouselab",35,269863,3
"128","mouselab","False","[13, 13]","[[3, 6, 4, 3, 6], [4, 4, 10, 8, 6], [7, 2, 6, 4, 5], [8, 3, 5, 3, 10], [5, 4, 6, 5, 9]]","[[2, 2, 0, 2, 2], [2, 2, 0, 2, 2], [0, 2, 2, 2, 2], [2, 2, 2, 2, 0], [2, 0, 2, 2, 0]]","[6, 9, 4, 8, 3]",10,32,4,0.072,0.0713333333333333,0.000666666666666667,"[13]",1,"greedy",5,5,3375,2,217,215,732783,"attentional-mouselab",36,274200,3
"129","mouselab","True","[]","[[4, 6, 5, 4, 4], [4, 4, 4, 4, 7], [4, 3, 7, 5, 5], [7, 3, 4, 3, 5], [4, 5, 5, 3, 6]]","[[0, 2, 2, 2, 2], [0, 2, 2, 2, 0], [2, 2, 2, 0, 2], [2, 2, 2, 2, 2], [0, 2, 0, 2, 2]]","[10, 7, 2, 4, 7]",12,1,1,0.047,0.047,0,"[]",0,"random",5,5,3535,0,141,141,800997,"attentional-mouselab",4,163639,4
"130","mouselab","True","[6, 6, 5, 5, 7, 7, 9, 9, 19, 19, 18, 18, 17, 17, 16, 16, 15, 15]","[[6, 5, 4, 7, 7], [6, 4, 6, 5, 3], [7, 6, 6, 3, 5], [3, 2, 3, 8, 6], [6, 5, 8, 5, 7]]","[[2, 2, 0, 2, 2], [2, 2, 2, 0, 2], [0, 2, 2, 2, 2], [2, 2, 2, 2, 2], [2, 2, 0, 0, 0]]","[1, 12, 1, 12, 4]",24,2,3,0.062,0.056,0.006,"[6, 5, 7, 9, 19, 18, 17, 16, 15]",9,"random",5,5,29203,18,186,168,741101,"attentional-mouselab",5,196244,4
"131","mouselab","False","[0, 0, 1, 1, 2, 2, 3, 3, 4, 4, 22, 22, 23, 23, 24, 24]","[[6, 4, 4, 2, 4], [4, 5, 8, 4, 6], [1, 3, 3, 7, 5], [4, 3, 6, 5, 5], [5, 6, 3, 3, 5]]","[[2, 2, 2, 2, 2], [2, 2, 2, 2, 0], [2, 2, 0, 2, 0], [2, 0, 2, 2, 2], [0, 0, 2, 2, 2]]","[15, 5, 1, 3, 6]",18,3,0,0.051,0.0456666666666667,0.00533333333333333,"[0, 1, 2, 3, 4, 22, 23, 24]",8,"random",5,5,13364,16,153,137,632485,"attentional-mouselab",7,214427,4
"132","mouselab","False","[15, 15, 16, 16, 17, 17, 18, 18, 19, 19, 5, 5, 11, 11, 6, 6, 7, 7, 12, 12, 8, 8]","[[4, 5, 6, 7, 4], [6, 6, 5, 4, 10], [5, 4, 1, 8, 5], [6, 4, 6, 8, 4], [6, 2, 7, 5, 6]]","[[2, 0, 2, 2, 2], [2, 2, 2, 2, 0], [0, 2, 2, 0, 0], [2, 2, 2, 2, 2], [2, 0, 2, 2, 2]]","[4, 6, 6, 13, 1]",14,4,3,0.07,0.0626666666666667,0.00733333333333333,"[15, 16, 17, 18, 19, 5, 11, 6, 7, 12, 8]",11,"random",5,5,13341,22,209,187,521497,"attentional-mouselab",8,229023,4
"133","mouselab","False","[10, 10, 11, 11, 13, 13, 14, 14, 20, 20, 22, 22, 23, 23, 24, 24]","[[7, 4, 4, 5, 6], [6, 4, 4, 5, 3], [3, 5, 6, 2, 3], [8, 0, 8, 5, 4], [4, 6, 5, 3, 6]]","[[2, 0, 2, 2, 2], [2, 2, 2, 2, 2], [2, 2, 0, 2, 2], [0, 0, 0, 2, 2], [2, 0, 2, 2, 2]]","[3, 2, 13, 4, 8]",18,5,2,0.057,0.0516666666666667,0.00533333333333333,"[10, 11, 13, 14, 20, 22, 23, 24]",8,"extreme",5,5,12375,16,170,154,783110,"attentional-mouselab",9,242796,4
"134","mouselab","False","[0, 0, 1, 1, 2, 2, 3, 3, 20, 20, 21, 21, 22, 22, 23, 23, 24, 24, 19, 19]","[[4, 6, 5, 4, 7], [4, 5, 7, 7, 4], [3, 4, 2, 6, 3], [4, 5, 4, 4, 6], [3, 4, 5, 4, 6]]","[[2, 2, 2, 2, 0], [0, 2, 2, 0, 2], [0, 0, 0, 2, 2], [2, 2, 2, 2, 2], [2, 2, 2, 2, 2]]","[9, 2, 3, 7, 9]",14,6,4,0.059,0.0523333333333333,0.00666666666666667,"[0, 1, 2, 3, 20, 21, 22, 23, 24, 19]",10,"greedy",5,5,23459,20,176,156,683659,"attentional-mouselab",10,267422,4
"135","mouselab","False","[5, 5, 6, 6, 7, 7, 8, 8, 9, 9, 0, 0, 2, 2, 3, 3, 4, 4]","[[7, 10, 2, 3, 4], [5, 7, 3, 3, 5], [3, 6, 4, 7, 4], [4, 2, 7, 3, 6], [3, 1, 5, 3, 5]]","[[2, 0, 2, 2, 2], [2, 2, 2, 2, 2], [2, 0, 0, 2, 2], [2, 0, 2, 2, 2], [2, 0, 2, 0, 2]]","[7, 18, 1, 2, 2]",26,7,1,0.069,0.063,0.006,"[5, 6, 7, 8, 9, 0, 2, 3, 4]",9,"extreme",5,5,9557,18,208,190,759949,"attentional-mouselab",11,278225,4
"136","mouselab","False","[0, 0, 1, 1, 2, 2, 3, 3, 4, 4, 17, 17, 16, 16, 15, 15]","[[6, 7, 10, 8, 6], [4, 5, 7, 5, 5], [6, 3, 4, 5, 8], [3, 8, 4, 3, 4], [6, 4, 6, 4, 6]]","[[2, 2, 2, 2, 2], [2, 2, 0, 0, 2], [2, 0, 2, 2, 2], [2, 2, 2, 0, 0], [2, 0, 2, 2, 2]]","[14, 1, 2, 9, 4]",22,8,2,0.072,0.0666666666666667,0.00533333333333333,"[0, 1, 2, 3, 4, 17, 16, 15]",8,"random",5,5,15006,16,215,199,639136,"attentional-mouselab",12,294607,4
"137","mouselab","False","[21, 21, 22, 22, 23, 23, 24, 24, 6, 6, 7, 7, 8, 8, 9, 9]","[[5, 5, 4, 4, 6], [8, 5, 3, 4, 5], [5, 5, 4, 5, 5], [7, 6, 7, 7, 4], [7, 7, 5, 3, 7]]","[[2, 2, 2, 0, 2], [0, 2, 2, 2, 2], [0, 2, 0, 2, 2], [0, 2, 2, 2, 2], [0, 2, 2, 2, 2]]","[5, 9, 4, 1, 11]",16,9,0,0.067,0.0616666666666667,0.00533333333333333,"[21, 22, 23, 24, 6, 7, 8, 9]",8,"greedy",5,5,16153,16,201,185,79142,"attentional-mouselab",13,312333,4
"138","mouselab","False","[5, 5, 6, 6, 1, 1, 3, 3, 8, 8, 9, 9, 4, 4]","[[6, 7, 3, 6, 7], [8, 6, 8, 5, 4], [4, 3, 6, 6, 5], [4, 4, 5, 7, 5], [6, 5, 8, 8, 2]]","[[0, 2, 0, 2, 2], [2, 2, 0, 2, 2], [2, 2, 2, 2, 2], [2, 2, 2, 0, 2], [2, 2, 2, 0, 0]]","[9, 9, 6, 1, 5]",12,10,0,0.061,0.0563333333333333,0.00466666666666667,"[5, 6, 1, 3, 8, 9, 4]",7,"greedy",5,5,16753,14,184,170,229131,"attentional-mouselab",14,330292,4
"139","mouselab","False","[10, 10, 11, 11, 12, 12, 13, 13, 14, 14, 18, 18, 16, 16]","[[2, 4, 4, 2, 6], [8, 6, 5, 5, 7], [3, 6, 5, 6, 5], [6, 5, 10, 5, 6], [4, 2, 8, 4, 5]]","[[0, 2, 2, 2, 2], [0, 0, 2, 2, 2], [2, 2, 2, 2, 2], [0, 2, 0, 2, 2], [2, 2, 2, 0, 2]]","[2, 3, 17, 5, 3]",22,11,2,0.061,0.0563333333333333,0.00466666666666667,"[10, 11, 12, 13, 14, 18, 16]",7,"extreme",5,5,12763,14,182,168,821038,"attentional-mouselab",15,344547,4
"140","mouselab","False","[20, 20, 21, 21, 22, 22, 23, 23, 5, 5, 6, 6, 7, 8, 7, 8]","[[7, 7, 7, 6, 5], [8, 6, 3, 5, 4], [2, 3, 8, 5, 6], [1, 6, 3, 7, 5], [8, 4, 4, 4, 6]]","[[0, 2, 0, 2, 2], [2, 2, 2, 2, 0], [0, 2, 2, 0, 2], [2, 2, 2, 2, 2], [2, 2, 2, 2, 0]]","[1, 7, 4, 6, 12]",14,12,0,0.058,0.0526666666666667,0.00533333333333333,"[20, 21, 22, 23, 5, 6, 7, 8]",8,"random",5,5,12225,16,173,157,121524,"attentional-mouselab",16,357735,4
"141","mouselab","False","[17, 17, 18, 18, 19, 19, 0, 0, 1, 1, 2, 2, 3, 3, 4, 4]","[[3, 6, 7, 6, 5], [5, 3, 3, 6, 7], [6, 4, 6, 3, 8], [7, 2, 4, 6, 5], [9, 5, 5, 4, 3]]","[[2, 2, 2, 2, 2], [0, 2, 2, 0, 2], [2, 2, 2, 2, 0], [0, 0, 2, 2, 2], [0, 2, 2, 2, 2]]","[9, 1, 2, 14, 4]",22,13,3,0.055,0.0496666666666667,0.00533333333333333,"[17, 18, 19, 0, 1, 2, 3, 4]",8,"extreme",5,5,16950,16,166,150,931127,"attentional-mouselab",17,375835,4
"142","mouselab","False","[16, 16, 17, 17, 17, 0, 0, 1, 1, 2, 2, 3, 3, 24, 24, 23, 23, 22, 22, 21, 21, 20, 20]","[[5, 4, 5, 5, 7], [3, 5, 5, 6, 4], [2, 4, 5, 5, 8], [3, 3, 4, 7, 2], [4, 7, 2, 5, 6]]","[[2, 2, 2, 2, 0], [2, 0, 2, 2, 2], [2, 2, 2, 2, 0], [0, 2, 2, 0, 0], [2, 2, 2, 2, 2]]","[8, 4, 2, 9, 7]",12,14,3,0.057,0.0496666666666667,0.00733333333333333,"[16, 17, 0, 1, 2, 3, 24, 23, 22, 21, 20]",11,"greedy",5,5,20340,22,172,150,97037,"attentional-mouselab",18,397128,4
"143","mouselab","False","[10, 10, 11, 11, 12, 12, 13, 13]","[[5, 7, 2, 3, 4], [7, 6, 6, 4, 5], [7, 4, 6, 3, 9], [9, 3, 6, 5, 6], [4, 5, 5, 7, 2]]","[[2, 2, 0, 2, 2], [2, 2, 0, 2, 2], [2, 2, 2, 2, 0], [0, 0, 2, 2, 2], [2, 2, 2, 2, 0]]","[1, 3, 23, 1, 2]",34,15,4,0.079,0.0763333333333333,0.00266666666666667,"[10, 11, 12, 13]",4,"extreme",5,5,5774,8,236,228,618474,"attentional-mouselab",19,404694,4
"144","mouselab","False","[15, 15, 16, 16, 17, 17, 18, 18, 19, 19, 13, 13, 12, 12, 11, 11, 10, 10]","[[6, 7, 8, 6, 6], [6, 5, 6, 5, 3], [3, 4, 4, 4, 6], [7, 4, 9, 5, 3], [7, 6, 6, 9, 3]]","[[0, 2, 2, 2, 0], [2, 2, 0, 0, 0], [2, 2, 2, 2, 0], [2, 2, 2, 2, 2], [2, 2, 2, 2, 2]]","[1, 4, 7, 17, 1]",24,16,2,0.073,0.067,0.006,"[15, 16, 17, 18, 19, 13, 12, 11, 10]",9,"random",5,5,11698,18,219,201,152336,"attentional-mouselab",20,417582,4
"145","mouselab","False","[20, 20, 22, 22, 23, 23, 4, 4, 3, 3, 2, 2, 1, 1, 0, 0]","[[4, 4, 2, 2, 5], [7, 4, 6, 4, 4], [5, 4, 5, 5, 2], [7, 6, 9, 3, 4], [6, 5, 4, 5, 7]]","[[2, 2, 2, 2, 2], [0, 2, 2, 2, 2], [2, 2, 0, 2, 0], [0, 2, 2, 2, 2], [2, 0, 2, 2, 0]]","[8, 2, 3, 4, 13]",18,17,4,0.054,0.0486666666666667,0.00533333333333333,"[20, 22, 23, 4, 3, 2, 1, 0]",8,"greedy",5,5,8517,16,161,145,612261,"attentional-mouselab",21,427264,4
"146","mouselab","False","[15, 15, 10, 10, 11, 11, 13, 13, 14, 14, 19, 19]","[[6, 6, 3, 2, 6], [6, 8, 5, 2, 4], [6, 2, 8, 7, 5], [6, 4, 6, 6, 5], [4, 5, 7, 4, 5]]","[[2, 2, 2, 2, 2], [2, 0, 2, 2, 2], [2, 2, 0, 2, 2], [2, 0, 0, 0, 2], [2, 2, 0, 2, 2]]","[2, 3, 9, 12, 4]",18,18,2,0.064,0.06,0.004,"[15, 10, 11, 13, 14, 19]",6,"greedy",5,5,11414,12,193,181,452539,"attentional-mouselab",22,440226,4
"147","mouselab","False","[15, 15, 17, 17, 18, 18, 19, 19, 5, 5, 8, 8, 9, 9]","[[5, 3, 5, 7, 3], [3, 8, 1, 5, 5], [3, 4, 5, 7, 2], [3, 5, 4, 5, 8], [5, 4, 7, 3, 1]]","[[2, 0, 2, 2, 2], [2, 0, 0, 2, 2], [2, 2, 2, 2, 2], [2, 0, 2, 2, 2], [2, 2, 2, 0, 0]]","[4, 8, 3, 9, 6]",10,19,4,0.045,0.0403333333333333,0.00466666666666667,"[15, 17, 18, 19, 5, 8, 9]",7,"extreme",5,5,12631,14,136,122,427670,"attentional-mouselab",23,454177,4
"148","mouselab","False","[11, 11, 12, 12, 13, 13, 14, 14, 23, 23, 22, 22, 21, 21, 20, 20]","[[8, 6, 7, 4, 4], [1, 4, 7, 7, 6], [6, 7, 6, 5, 6], [5, 4, 5, 6, 4], [4, 5, 6, 5, 2]]","[[0, 2, 2, 2, 2], [0, 2, 2, 0, 2], [0, 2, 2, 2, 2], [2, 2, 2, 2, 0], [2, 2, 2, 2, 0]]","[2, 6, 10, 3, 9]",14,20,1,0.054,0.0486666666666667,0.00533333333333333,"[11, 12, 13, 14, 23, 22, 21, 20]",8,"extreme",5,5,10403,16,163,147,358523,"attentional-mouselab",24,465713,4
"149","mouselab","False","[11, 11, 13, 13, 14, 14, 17, 17, 16, 16, 15, 15, 18, 18, 19, 19]","[[5, 3, 4, 6, 3], [3, 8, 4, 3, 6], [2, 5, 8, 4, 4], [5, 6, 5, 2, 7], [6, 4, 3, 4, 5]]","[[2, 2, 2, 2, 2], [0, 0, 2, 2, 0], [0, 2, 0, 2, 2], [2, 2, 2, 2, 2], [2, 2, 2, 2, 0]]","[4, 4, 11, 6, 5]",10,21,2,0.055,0.0496666666666667,0.00533333333333333,"[11, 13, 14, 17, 16, 15, 18, 19]",8,"extreme",5,5,9964,16,165,149,937626,"attentional-mouselab",25,477622,4
"150","mouselab","False","[6, 6, 7, 7, 8, 8, 18, 18, 17, 17, 16, 16, 15, 15]","[[3, 5, 7, 4, 7], [5, 4, 5, 4, 6], [4, 2, 5, 5, 4], [5, 6, 5, 2, 8], [9, 5, 6, 3, 3]]","[[2, 2, 0, 2, 2], [0, 2, 2, 2, 0], [2, 2, 2, 0, 2], [2, 2, 2, 2, 0], [2, 2, 2, 2, 0]]","[1, 14, 4, 9, 2]",22,22,4,0.062,0.0573333333333333,0.00466666666666667,"[6, 7, 8, 18, 17, 16, 15]",7,"greedy",5,5,7737,14,185,171,913158,"attentional-mouselab",26,486500,4
"151","mouselab","False","[5, 5, 6, 6, 7, 7, 8, 8, 9, 9]","[[6, 6, 3, 7, 5], [5, 3, 5, 4, 5], [7, 5, 1, 5, 7], [5, 3, 6, 3, 5], [2, 6, 5, 6, 6]]","[[0, 2, 2, 2, 0], [2, 2, 2, 2, 2], [0, 2, 0, 2, 2], [0, 2, 2, 2, 2], [0, 2, 2, 2, 2]]","[2, 18, 7, 2, 1]",26,23,0,0.054,0.0506666666666667,0.00333333333333333,"[5, 6, 7, 8, 9]",5,"extreme",5,5,6456,10,163,153,131338,"attentional-mouselab",27,494001,4
"152","mouselab","False","[0, 0, 5, 5, 6, 6, 1, 1, 2, 2, 7, 7, 8, 8, 4, 4, 9, 9]","[[4, 4, 5, 5, 3], [4, 3, 3, 7, 4], [4, 5, 4, 5, 8], [6, 2, 5, 7, 4], [6, 7, 5, 5, 5]]","[[2, 2, 2, 0, 2], [2, 2, 2, 2, 2], [2, 2, 2, 2, 0], [2, 2, 0, 2, 0], [0, 2, 2, 0, 2]]","[14, 9, 4, 2, 1]",22,24,3,0.057,0.051,0.006,"[0, 5, 6, 1, 2, 7, 8, 4, 9]",9,"random",5,5,7148,18,172,154,579523,"attentional-mouselab",28,502095,4
"153","mouselab","False","[16, 16, 18, 18, 19, 19, 20, 20, 21, 21, 23, 23, 24, 24, 5, 5, 6, 6, 7, 7, 8, 8, 9, 9, 0, 0, 1, 1]","[[4, 5, 4, 1, 5], [5, 4, 5, 7, 3], [4, 8, 5, 5, 4], [3, 4, 5, 4, 4], [2, 5, 1, 7, 9]]","[[2, 2, 0, 0, 0], [2, 2, 2, 2, 2], [2, 2, 2, 2, 2], [0, 2, 0, 2, 2], [2, 2, 0, 2, 2]]","[5, 6, 1, 13, 5]",14,25,2,0.042,0.0326666666666667,0.00933333333333333,"[16, 18, 19, 20, 21, 23, 24, 5, 6, 7, 8, 9, 0, 1]",14,"random",5,5,14577,28,125,97,711082,"attentional-mouselab",29,517748,4
"154","mouselab","False","[2, 2, 4, 4, 20, 20, 21, 21, 22, 22, 23, 23, 24, 24]","[[2, 5, 8, 5, 5], [3, 3, 6, 7, 7], [6, 6, 5, 8, 7], [1, 3, 4, 6, 5], [3, 10, 4, 3, 5]]","[[0, 0, 2, 0, 2], [0, 2, 0, 2, 2], [2, 2, 2, 2, 0], [2, 2, 2, 2, 2], [2, 2, 2, 2, 2]]","[14, 5, 4, 1, 6]",16,26,2,0.063,0.0583333333333333,0.00466666666666667,"[2, 4, 20, 21, 22, 23, 24]",7,"random",5,5,11583,14,190,176,384095,"attentional-mouselab",30,530357,4
"155","mouselab","False","[21, 21, 23, 23, 24, 24]","[[2, 7, 6, 6, 6], [5, 8, 5, 2, 4], [2, 4, 3, 3, 5], [6, 7, 2, 5, 5], [7, 4, 2, 5, 6]]","[[0, 0, 2, 2, 2], [2, 0, 2, 2, 2], [0, 2, 2, 2, 2], [2, 2, 2, 2, 2], [0, 2, 0, 2, 2]]","[6, 3, 7, 3, 11]",12,27,0,0.045,0.043,0.002,"[21, 23, 24]",3,"extreme",5,5,4563,6,136,130,779886,"attentional-mouselab",31,536029,4
"156","mouselab","False","[1, 1, 2, 2, 3, 3, 4, 4, 10, 10, 11, 11, 12, 12, 13, 13, 14, 14]","[[2, 5, 3, 6, 5], [6, 6, 7, 5, 4], [6, 7, 7, 4, 5], [2, 4, 0, 6, 8], [3, 3, 4, 5, 5]]","[[0, 2, 2, 2, 2], [0, 2, 2, 2, 2], [2, 2, 2, 2, 2], [2, 2, 0, 2, 0], [0, 0, 2, 2, 2]]","[15, 1, 9, 3, 2]",24,28,1,0.054,0.048,0.006,"[1, 2, 3, 4, 10, 11, 12, 13, 14]",9,"random",5,5,11054,18,162,144,194415,"attentional-mouselab",32,548182,4
"157","mouselab","False","[20, 20, 21, 21, 22, 22, 23, 23, 5, 5, 6, 6, 7, 7, 9, 9]","[[4, 6, 4, 5, 6], [3, 6, 4, 4, 6], [6, 6, 1, 2, 4], [8, 5, 7, 9, 4], [4, 6, 8, 5, 8]]","[[0, 2, 2, 2, 2], [2, 2, 2, 0, 2], [2, 0, 0, 2, 2], [2, 2, 0, 2, 2], [2, 2, 2, 2, 0]]","[1, 7, 5, 1, 16]",22,29,2,0.057,0.0516666666666667,0.00533333333333333,"[20, 21, 22, 23, 5, 6, 7, 9]",8,"greedy",5,5,11330,16,172,156,139353,"attentional-mouselab",33,561296,4
"158","mouselab","False","[20, 20, 21, 21, 24, 24, 6, 6, 7, 7, 8, 8, 9, 9]","[[7, 7, 4, 3, 4], [6, 5, 3, 2, 5], [6, 5, 7, 5, 5], [4, 8, 6, 4, 7], [6, 5, 6, 5, 7]]","[[0, 2, 2, 2, 2], [0, 2, 2, 2, 2], [2, 2, 0, 2, 2], [0, 2, 2, 2, 2], [2, 2, 0, 0, 2]]","[3, 7, 3, 5, 12]",14,30,4,0.06,0.0553333333333333,0.00466666666666667,"[20, 21, 24, 6, 7, 8, 9]",7,"random",5,5,10834,14,181,167,956655,"attentional-mouselab",34,573797,4
"159","mouselab","False","[20, 20, 21, 21, 22, 22, 0, 0, 1, 1, 24, 24, 4, 4]","[[4, 5, 5, 2, 6], [4, 5, 4, 4, 3], [3, 5, 4, 5, 6], [5, 3, 5, 3, 2], [6, 6, 6, 8, 7]]","[[2, 2, 0, 0, 2], [2, 2, 0, 2, 2], [0, 2, 0, 2, 2], [2, 2, 2, 2, 2], [2, 2, 2, 0, 2]]","[6, 5, 2, 3, 14]",16,31,4,0.056,0.0513333333333333,0.00466666666666667,"[20, 21, 22, 0, 1, 24, 4]",7,"greedy",5,5,7844,14,167,153,215145,"attentional-mouselab",35,582789,4
"160","mouselab","False","[0, 0, 1, 1, 2, 2, 3, 3, 4, 4, 17, 17, 18, 18, 19, 19]","[[5, 2, 3, 6, 6], [8, 6, 5, 7, 6], [6, 1, 4, 5, 6], [2, 5, 4, 3, 5], [2, 5, 5, 3, 4]]","[[2, 2, 2, 2, 2], [2, 2, 2, 2, 0], [2, 0, 2, 2, 0], [0, 0, 2, 2, 2], [2, 0, 2, 2, 2]]","[10, 3, 5, 7, 5]",10,32,4,0.054,0.0486666666666667,0.00533333333333333,"[0, 1, 2, 3, 4, 17, 18, 19]",8,"greedy",5,5,14649,16,163,147,810290,"attentional-mouselab",36,599108,4
"161","mouselab","True","[9, 9, 19, 19]","[[3, 5, 7, 7, 4], [5, 6, 4, 6, 4], [5, 5, 7, 2, 4], [7, 3, 6, 6, 5], [3, 2, 5, 3, 10]]","[[0, 2, 2, 0, 2], [2, 2, 2, 2, 2], [0, 2, 2, 2, 2], [0, 2, 0, 2, 2], [0, 2, 2, 2, 2]]","[3, 12, 11, 3, 1]",22,1,4,0.043,0.0416666666666667,0.00133333333333333,"[9, 19]",2,"random",5,5,11630,4,129,125,279009,"attentional-mouselab",4,128454,5
"162","mouselab","True","[]","[[8, 6, 5, 5, 2], [6, 4, 7, 3, 7], [7, 7, 4, 2, 7], [2, 3, 4, 4, 7], [6, 6, 10, 3, 5]]","[[2, 0, 2, 0, 2], [2, 0, 2, 2, 2], [0, 2, 2, 2, 2], [2, 2, 2, 2, 2], [2, 0, 0, 2, 2]]","[1, 4, 8, 5, 12]",16,2,2,0.068,0.068,0,"[]",0,"random",5,5,3854,0,205,205,639434,"attentional-mouselab",5,135593,5
"163","mouselab","False","[]","[[5, 7, 5, 3, 4], [3, 5, 4, 6, 7], [4, 4, 5, 4, 8], [7, 3, 4, 8, 6], [5, 5, 5, 4, 8]]","[[2, 0, 2, 2, 2], [2, 0, 0, 2, 2], [2, 0, 2, 2, 2], [2, 0, 0, 2, 2], [2, 2, 2, 2, 2]]","[3, 10, 8, 2, 7]",14,3,1,0.048,0.048,0,"[]",0,"random",5,5,3623,0,144,144,53370,"attentional-mouselab",7,144169,5
"164","mouselab","False","[]","[[4, 4, 7, 6, 5], [5, 5, 6, 5, 6], [10, 6, 4, 9, 2], [5, 6, 2, 6, 5], [6, 4, 2, 4, 3]]","[[2, 0, 2, 2, 2], [2, 2, 2, 0, 2], [0, 2, 2, 0, 2], [2, 2, 0, 2, 2], [0, 2, 2, 2, 2]]","[7, 2, 15, 2, 4]",20,4,0,0.074,0.074,0,"[]",0,"greedy",5,5,3914,0,222,222,321244,"attentional-mouselab",8,156767,5
"165","mouselab","False","[5, 5, 8, 8]","[[5, 2, 6, 5, 6], [5, 6, 4, 6, 7], [4, 5, 7, 6, 7], [9, 6, 6, 5, 5], [6, 6, 6, 5, 6]]","[[2, 2, 2, 2, 2], [2, 0, 2, 2, 0], [2, 2, 2, 2, 0], [0, 2, 2, 2, 2], [2, 2, 2, 0, 0]]","[7, 11, 2, 3, 7]",14,5,4,0.063,0.0616666666666667,0.00133333333333333,"[5, 8]",2,"greedy",5,5,13114,4,190,186,441886,"attentional-mouselab",9,172968,5
"166","mouselab","False","[]","[[5, 3, 8, 5, 3], [4, 3, 4, 6, 5], [6, 7, 4, 5, 5], [6, 5, 6, 6, 6], [5, 6, 5, 7, 2]]","[[2, 0, 0, 0, 2], [2, 0, 2, 2, 2], [2, 2, 2, 2, 2], [0, 2, 2, 2, 2], [2, 2, 2, 2, 0]]","[9, 7, 6, 4, 4]",8,6,4,0.041,0.041,0,"[]",0,"random",5,5,7030,0,124,124,712042,"attentional-mouselab",10,183042,5
"167","mouselab","False","[21, 21, 24, 24, 23, 23]","[[2, 8, 5, 3, 5], [6, 7, 4, 8, 7], [4, 4, 4, 8, 3], [3, 5, 10, 8, 1], [3, 4, 5, 8, 4]]","[[2, 2, 2, 2, 2], [0, 2, 2, 2, 0], [0, 2, 0, 0, 2], [2, 2, 0, 2, 2], [2, 2, 2, 2, 2]]","[1, 1, 5, 1, 22]",32,7,3,0.078,0.076,0.002,"[21, 24, 23]",3,"random",5,5,11222,6,235,229,636738,"attentional-mouselab",11,200558,5
"168","mouselab","False","[]","[[4, 6, 7, 5, 7], [4, 4, 6, 8, 7], [7, 7, 4, 3, 1], [7, 6, 5, 5, 8], [7, 4, 3, 3, 5]]","[[2, 2, 2, 2, 0], [2, 0, 2, 2, 0], [2, 0, 0, 2, 2], [0, 2, 2, 2, 2], [2, 2, 2, 2, 2]]","[2, 5, 10, 2, 11]",18,8,3,0.041,0.041,0,"[]",0,"random",5,5,7605,0,123,123,842418,"attentional-mouselab",12,210199,5
"169","mouselab","False","[]","[[5, 7, 4, 5, 6], [5, 9, 3, 5, 5], [6, 5, 9, 5, 3], [4, 2, 5, 5, 7], [2, 4, 7, 5, 7]]","[[2, 2, 2, 2, 2], [2, 2, 2, 2, 2], [2, 2, 0, 0, 0], [2, 0, 0, 0, 2], [2, 2, 2, 2, 2]]","[15, 6, 4, 4, 1]",18,9,0,0.049,0.049,0,"[]",0,"random",5,5,3530,0,147,147,642685,"attentional-mouselab",13,215750,5
"170","mouselab","False","[]","[[3, 4, 4, 5, 5], [5, 7, 4, 7, 6], [6, 1, 6, 4, 5], [7, 6, 8, 5, 2], [4, 8, 3, 5, 4]]","[[2, 2, 2, 2, 2], [2, 2, 2, 2, 2], [2, 0, 0, 2, 2], [2, 2, 0, 2, 2], [2, 0, 2, 0, 0]]","[7, 3, 1, 1, 18]",26,10,1,0.067,0.067,0,"[]",0,"extreme",5,5,6296,0,200,200,984079,"attentional-mouselab",14,226623,5
"171","mouselab","False","[]","[[5, 8, 6, 7, 8], [6, 6, 5, 3, 6], [5, 8, 1, 8, 7], [9, 3, 7, 4, 4], [4, 4, 4, 4, 5]]","[[2, 0, 2, 2, 2], [2, 2, 2, 2, 2], [2, 0, 0, 2, 2], [0, 2, 2, 2, 0], [2, 2, 2, 0, 2]]","[2, 13, 2, 12, 1]",26,11,0,0.07,0.07,0,"[]",0,"extreme",5,5,2555,0,210,210,774263,"attentional-mouselab",15,230781,5
"172","mouselab","False","[]","[[7, 7, 7, 6, 5], [8, 6, 3, 5, 4], [2, 3, 8, 5, 6], [1, 6, 3, 7, 5], [8, 4, 4, 4, 6]]","[[0, 2, 0, 2, 2], [0, 2, 2, 2, 0], [0, 2, 2, 2, 2], [0, 2, 2, 2, 2], [2, 2, 2, 2, 2]]","[7, 4, 6, 12, 1]",14,12,3,0.06,0.06,0,"[]",0,"extreme",5,5,2647,0,180,180,121524,"attentional-mouselab",16,234739,5
"173","mouselab","False","[]","[[6, 6, 6, 2, 4], [5, 8, 5, 6, 5], [5, 6, 5, 4, 4], [3, 5, 4, 3, 5], [7, 3, 4, 7, 4]]","[[2, 2, 2, 0, 2], [2, 0, 2, 2, 2], [2, 2, 2, 2, 0], [0, 2, 2, 2, 2], [0, 2, 2, 0, 2]]","[3, 12, 4, 6, 5]",12,13,1,0.061,0.061,0,"[]",0,"extreme",5,5,3398,0,183,183,977611,"attentional-mouselab",17,239564,5
"174","mouselab","False","[]","[[5, 5, 4, 7, 4], [8, 5, 2, 4, 3], [4, 5, 3, 7, 3], [4, 5, 4, 5, 5], [5, 5, 6, 8, 5]]","[[2, 2, 2, 0, 2], [2, 2, 2, 2, 2], [2, 2, 2, 0, 2], [2, 0, 0, 2, 2], [2, 2, 2, 0, 0]]","[8, 3, 8, 3, 8]",12,14,3,0.068,0.068,0,"[]",0,"greedy",5,5,2331,0,203,203,389416,"attentional-mouselab",18,243530,5
"175","mouselab","False","[]","[[4, 5, 6, 6, 4], [6, 6, 4, 7, 6], [7, 3, 7, 7, 6], [4, 2, 3, 4, 3], [4, 1, 5, 6, 5]]","[[2, 2, 2, 2, 2], [2, 2, 2, 2, 2], [0, 0, 2, 2, 2], [2, 0, 2, 0, 2], [2, 0, 2, 0, 2]]","[1, 11, 4, 13, 1]",24,15,1,0.037,0.037,0,"[]",0,"extreme",5,5,1887,0,110,110,14433,"attentional-mouselab",19,248155,5
"176","mouselab","False","[13, 13]","[[6, 6, 5, 4, 2], [4, 5, 5, 7, 8], [5, 3, 5, 3, 5], [0, 4, 5, 6, 6], [6, 5, 5, 2, 8]]","[[2, 2, 2, 2, 0], [2, 2, 2, 2, 2], [2, 2, 2, 2, 2], [0, 2, 0, 2, 2], [0, 2, 0, 0, 2]]","[2, 7, 14, 5, 2]",18,16,1,0.04,0.0393333333333333,0.000666666666666667,"[13]",1,"extreme",5,5,7248,2,119,117,721676,"attentional-mouselab",20,259046,5
"177","mouselab","False","[]","[[8, 8, 4, 5, 9], [6, 1, 3, 5, 5], [4, 3, 5, 7, 4], [7, 6, 5, 8, 6], [5, 1, 4, 0, 8]]","[[0, 2, 2, 2, 0], [2, 2, 2, 2, 2], [0, 2, 2, 2, 2], [0, 2, 2, 2, 0], [2, 2, 2, 2, 0]]","[8, 1, 5, 12, 4]",16,17,0,0.065,0.065,0,"[]",0,"greedy",5,5,4030,0,194,194,734185,"attentional-mouselab",21,265980,5
"178","mouselab","False","[]","[[4, 7, 4, 7, 4], [5, 7, 4, 2, 4], [8, 5, 5, 5, 4], [3, 4, 4, 5, 4], [6, 4, 1, 6, 5]]","[[2, 0, 2, 2, 2], [2, 0, 2, 2, 0], [0, 2, 2, 2, 2], [2, 2, 0, 0, 2], [2, 2, 2, 2, 2]]","[1, 16, 3, 6, 4]",20,18,1,0.058,0.058,0,"[]",0,"greedy",5,5,2388,0,174,174,18976,"attentional-mouselab",22,270046,5
"179","mouselab","False","[]","[[5, 8, 6, 6, 6], [2, 3, 1, 6, 4], [5, 5, 5, 1, 6], [4, 8, 7, 5, 9], [6, 2, 5, 4, 7]]","[[2, 0, 0, 2, 2], [2, 2, 0, 2, 2], [2, 2, 2, 2, 0], [2, 2, 2, 2, 0], [2, 2, 2, 2, 0]]","[7, 3, 11, 8, 1]",16,19,3,0.038,0.038,0,"[]",0,"greedy",5,5,2671,0,115,115,332834,"attentional-mouselab",23,274029,5
"180","mouselab","False","[]","[[8, 3, 4, 2, 5], [6, 3, 5, 7, 6], [6, 7, 7, 5, 5], [5, 4, 6, 8, 5], [3, 5, 8, 5, 7]]","[[0, 0, 2, 0, 2], [0, 2, 2, 2, 2], [2, 2, 2, 2, 2], [0, 2, 2, 2, 2], [2, 2, 0, 2, 2]]","[3, 4, 2, 11, 10]",18,20,4,0.058,0.058,0,"[]",0,"extreme",5,5,1405,0,174,174,334911,"attentional-mouselab",24,276820,5
"181","mouselab","False","[]","[[7, 2, 7, 6, 10], [4, 4, 5, 5, 6], [7, 0, 4, 3, 3], [5, 7, 3, 4, 3], [3, 3, 3, 3, 2]]","[[0, 2, 2, 2, 0], [2, 2, 2, 2, 2], [0, 0, 2, 2, 0], [2, 2, 2, 2, 2], [2, 2, 2, 0, 2]]","[6, 12, 5, 4, 3]",12,21,2,0.048,0.048,0,"[]",0,"greedy",5,5,3147,0,143,143,513805,"attentional-mouselab",25,281346,5
"182","mouselab","False","[]","[[4, 3, 8, 6, 5], [5, 2, 5, 8, 3], [1, 5, 4, 6, 2], [2, 5, 6, 4, 5], [4, 4, 5, 6, 8]]","[[2, 2, 0, 2, 2], [2, 2, 0, 0, 2], [2, 2, 0, 2, 0], [2, 2, 2, 2, 2], [2, 2, 0, 2, 2]]","[3, 16, 2, 5, 4]",20,22,0,0.04,0.04,0,"[]",0,"greedy",5,5,2789,0,120,120,869125,"attentional-mouselab",26,286662,5
"183","mouselab","False","[]","[[8, 4, 6, 6, 4], [5, 4, 2, 5, 3], [4, 7, 6, 5, 7], [3, 4, 7, 5, 5], [4, 4, 4, 6, 3]]","[[0, 2, 2, 2, 0], [2, 2, 0, 2, 2], [2, 2, 2, 2, 2], [0, 2, 2, 2, 2], [2, 2, 2, 0, 0]]","[13, 3, 7, 3, 4]",16,23,3,0.056,0.056,0,"[]",0,"extreme",5,5,3121,0,167,167,740507,"attentional-mouselab",27,291511,5
"184","mouselab","False","[]","[[3, 6, 4, 5, 6], [7, 4, 5, 5, 5], [4, 2, 4, 2, 3], [4, 6, 8, 4, 5], [5, 7, 5, 5, 6]]","[[0, 0, 2, 2, 0], [2, 2, 2, 2, 2], [2, 2, 2, 0, 2], [2, 2, 0, 2, 2], [2, 0, 2, 2, 2]]","[4, 7, 12, 4, 3]",14,24,2,0.049,0.049,0,"[]",0,"greedy",5,5,3297,0,146,146,802281,"attentional-mouselab",28,296186,5
"185","mouselab","False","[3]","[[5, 4, 3, 5, 2], [2, 3, 7, 7, 4], [9, 4, 6, 4, 4], [3, 8, 3, 6, 6], [5, 4, 4, 6, 8]]","[[2, 2, 2, 2, 0], [2, 2, 0, 2, 2], [2, 2, 2, 2, 0], [2, 0, 0, 2, 2], [2, 0, 2, 2, 2]]","[6, 1, 8, 1, 14]",20,25,3,0.053,0.0526666666666667,0.000333333333333333,"[]",0,"random",5,5,3455,1,159,158,643639,"attentional-mouselab",29,301236,5
"186","mouselab","False","[]","[[4, 6, 6, 5, 5], [4, 5, 4, 5, 6], [9, 3, 5, 7, 4], [7, 7, 5, 7, 3], [4, 7, 3, 3, 2]]","[[2, 2, 2, 2, 2], [2, 2, 0, 2, 2], [0, 2, 2, 2, 2], [2, 2, 0, 0, 2], [2, 2, 2, 0, 0]]","[3, 2, 1, 8, 16]",24,26,1,0.066,0.066,0,"[]",0,"random",5,5,3056,0,199,199,624574,"attentional-mouselab",30,306402,5
"187","mouselab","False","[]","[[4, 4, 3, 5, 3], [6, 5, 1, 7, 7], [4, 6, 5, 6, 6], [5, 6, 5, 3, 5], [6, 4, 3, 6, 5]]","[[2, 2, 0, 2, 2], [2, 2, 0, 0, 2], [2, 2, 2, 2, 2], [2, 2, 2, 2, 0], [0, 2, 0, 2, 2]]","[1, 6, 7, 14, 2]",18,27,2,0.04,0.04,0,"[]",0,"extreme",5,5,3281,0,120,120,794442,"attentional-mouselab",31,311218,5
"188","mouselab","False","[]","[[5, 7, 5, 5, 2], [4, 4, 5, 7, 3], [6, 2, 6, 7, 3], [1, 4, 3, 5, 4], [7, 4, 10, 5, 5]]","[[0, 2, 2, 2, 2], [0, 0, 2, 2, 2], [2, 0, 2, 0, 2], [2, 2, 2, 2, 2], [0, 2, 2, 2, 2]]","[7, 5, 3, 5, 10]",10,28,4,0.036,0.036,0,"[]",0,"random",5,5,2031,0,108,108,578753,"attentional-mouselab",32,314726,5
"189","mouselab","False","[]","[[5, 6, 4, 3, 3], [2, 3, 5, 7, 6], [3, 2, 3, 3, 5], [8, 2, 5, 4, 5], [2, 6, 3, 4, 4]]","[[2, 0, 2, 2, 0], [2, 2, 2, 2, 0], [2, 0, 0, 2, 2], [2, 2, 2, 2, 2], [0, 2, 2, 2, 2]]","[1, 2, 2, 9, 16]",26,29,3,0.041,0.041,0,"[]",0,"random",5,5,2497,0,123,123,756885,"attentional-mouselab",33,318685,5
"190","mouselab","False","[]","[[4, 6, 7, 6, 7], [4, 4, 7, 6, 4], [6, 7, 4, 6, 4], [7, 7, 0, 6, 9], [4, 5, 3, 6, 6]]","[[2, 2, 2, 2, 2], [2, 2, 0, 2, 2], [2, 0, 0, 2, 2], [0, 2, 2, 0, 0], [2, 2, 2, 2, 2]]","[8, 3, 3, 6, 10]",12,30,4,0.065,0.065,0,"[]",0,"random",5,5,1222,0,194,194,5706,"attentional-mouselab",34,321893,5
"191","mouselab","False","[]","[[5, 5, 6, 3, 4], [6, 7, 4, 3, 4], [4, 2, 5, 7, 5], [6, 7, 6, 6, 5], [6, 5, 8, 8, 3]]","[[2, 2, 2, 2, 2], [2, 0, 2, 2, 0], [2, 0, 2, 2, 2], [2, 2, 2, 2, 2], [0, 2, 0, 0, 2]]","[6, 12, 3, 5, 4]",12,31,3,0.046,0.046,0,"[]",0,"extreme",5,5,3847,0,137,137,283438,"attentional-mouselab",35,327693,5
"192","mouselab","False","[]","[[4, 3, 7, 4, 6], [3, 6, 3, 8, 7], [7, 7, 3, 6, 5], [6, 4, 5, 3, 4], [2, 5, 6, 7, 4]]","[[2, 2, 0, 2, 2], [2, 2, 2, 0, 2], [2, 2, 2, 0, 2], [2, 2, 0, 2, 2], [2, 2, 2, 0, 0]]","[5, 5, 10, 1, 9]",14,32,3,0.062,0.062,0,"[]",0,"greedy",5,5,2538,0,186,186,621508,"attentional-mouselab",36,332968,5
"193","mouselab","True","[22, 8]","[[4, 6, 7, 4, 6], [7, 8, 5, 5, 7], [3, 6, 6, 3, 6], [1, 5, 4, 3, 6], [8, 3, 4, 4, 8]]","[[2, 2, 2, 2, 2], [0, 0, 2, 2, 0], [2, 2, 2, 2, 0], [0, 2, 2, 2, 2], [0, 2, 2, 2, 2]]","[2, 13, 11, 2, 2]",24,1,1,0.066,0.0653333333333333,0.000666666666666667,"[]",0,"random",5,5,8921,2,198,196,912023,"attentional-mouselab",4,129754,6
"194","mouselab","True","[]","[[9, 6, 6, 6, 3], [6, 5, 7, 9, 2], [4, 3, 4, 4, 4], [5, 5, 4, 5, 4], [3, 8, 6, 0, 9]]","[[2, 2, 2, 2, 2], [0, 2, 0, 0, 2], [2, 2, 0, 2, 2], [2, 0, 2, 2, 0], [2, 2, 2, 2, 2]]","[2, 3, 13, 6, 6]",14,2,2,0.048,0.048,0,"[]",0,"random",5,5,3787,0,145,145,71790,"attentional-mouselab",5,135620,6
"195","mouselab","False","[21, 21]","[[8, 5, 6, 4, 3], [6, 6, 4, 8, 9], [7, 2, 3, 2, 4], [7, 6, 4, 2, 4], [6, 4, 3, 6, 5]]","[[0, 2, 2, 2, 2], [2, 2, 0, 2, 0], [2, 0, 2, 0, 2], [2, 0, 2, 2, 2], [2, 2, 2, 2, 2]]","[15, 3, 3, 2, 7]",20,3,0,0.072,0.0713333333333333,0.000666666666666667,"[21]",1,"extreme",5,5,14455,2,215,213,334267,"attentional-mouselab",7,157049,6
"196","mouselab","False","[]","[[6, 5, 3, 6, 2], [3, 5, 5, 6, 4], [6, 7, 3, 5, 1], [4, 6, 4, 6, 9], [3, 5, 6, 3, 5]]","[[2, 2, 2, 2, 0], [2, 2, 2, 2, 2], [2, 0, 2, 2, 0], [2, 2, 2, 2, 0], [2, 0, 2, 0, 2]]","[8, 11, 3, 6, 2]",14,4,2,0.041,0.041,0,"[]",0,"extreme",5,5,2509,0,124,124,87737,"attentional-mouselab",8,161820,6
"197","mouselab","False","[]","[[4, 5, 5, 7, 4], [7, 7, 2, 5, 8], [4, 5, 6, 4, 7], [5, 7, 6, 4, 5], [7, 6, 6, 4, 4]]","[[0, 2, 2, 2, 0], [2, 0, 2, 2, 2], [2, 0, 2, 2, 0], [2, 0, 2, 2, 2], [2, 2, 2, 2, 2]]","[4, 3, 13, 5, 5]",14,5,1,0.057,0.057,0,"[]",0,"greedy",5,5,2054,0,171,171,716375,"attentional-mouselab",9,165755,6
"198","mouselab","False","[]","[[4, 6, 6, 5, 3], [5, 4, 6, 7, 5], [2, 5, 7, 3, 3], [6, 4, 4, 5, 7], [1, 5, 4, 3, 6]]","[[0, 2, 2, 2, 2], [2, 2, 2, 2, 2], [2, 2, 0, 2, 0], [2, 2, 2, 0, 2], [2, 0, 2, 2, 0]]","[12, 2, 4, 9, 3]",18,6,3,0.047,0.047,0,"[]",0,"random",5,5,2301,0,140,140,332788,"attentional-mouselab",10,169852,6
"199","mouselab","False","[]","[[5, 3, 6, 7, 5], [3, 6, 6, 3, 1], [7, 3, 6, 7, 3], [4, 6, 5, 3, 5], [3, 6, 7, 4, 3]]","[[2, 2, 2, 2, 2], [0, 2, 2, 2, 0], [0, 2, 2, 0, 2], [2, 2, 0, 2, 0], [2, 2, 2, 2, 2]]","[6, 2, 11, 9, 2]",16,7,1,0.043,0.043,0,"[]",0,"extreme",5,5,2027,0,129,129,673651,"attentional-mouselab",11,173436,6
"200","mouselab","False","[]","[[4, 9, 6, 5, 6], [6, 5, 6, 2, 3], [6, 6, 2, 7, 8], [6, 4, 4, 5, 5], [6, 5, 5, 5, 6]]","[[2, 0, 2, 0, 2], [0, 2, 2, 2, 2], [2, 2, 2, 0, 0], [2, 2, 2, 2, 2], [2, 2, 2, 0, 2]]","[10, 5, 9, 4, 2]",14,8,4,0.06,0.06,0,"[]",0,"greedy",5,5,2080,0,179,179,96128,"attentional-mouselab",12,177353,6
"201","mouselab","False","[]","[[8, 8, 4, 5, 9], [6, 1, 3, 5, 5], [4, 3, 5, 7, 4], [7, 6, 5, 8, 6], [5, 1, 4, 0, 8]]","[[0, 2, 2, 2, 2], [2, 0, 2, 2, 2], [0, 2, 2, 2, 2], [0, 2, 2, 2, 2], [2, 0, 2, 0, 2]]","[3, 11, 8, 5, 3]",14,9,0,0.057,0.057,0,"[]",0,"extreme",5,5,1609,0,172,172,734185,"attentional-mouselab",13,180542,6
"202","mouselab","False","[]","[[4, 7, 8, 6, 0], [4, 4, 3, 4, 6], [2, 3, 7, 5, 6], [5, 5, 3, 3, 2], [6, 6, 4, 4, 7]]","[[0, 0, 2, 2, 0], [2, 2, 2, 2, 2], [2, 0, 0, 2, 2], [2, 2, 2, 0, 2], [2, 2, 2, 2, 2]]","[5, 1, 14, 6, 4]",16,10,1,0.045,0.045,0,"[]",0,"greedy",5,5,1529,0,135,135,598073,"attentional-mouselab",14,184483,6
"203","mouselab","False","[]","[[4, 3, 8, 4, 5], [5, 4, 7, 5, 7], [4, 8, 6, 4, 9], [6, 5, 6, 7, 2], [5, 4, 7, 2, 2]]","[[2, 2, 0, 2, 2], [2, 2, 2, 2, 2], [2, 0, 0, 2, 0], [2, 2, 2, 2, 0], [2, 2, 2, 0, 2]]","[2, 9, 4, 3, 12]",18,11,3,0.038,0.038,0,"[]",0,"extreme",5,5,1748,0,114,114,419320,"attentional-mouselab",15,189541,6
"204","mouselab","False","[]","[[4, 6, 6, 3, 5], [5, 6, 5, 7, 3], [2, 7, 6, 8, 6], [4, 7, 4, 5, 2], [7, 4, 8, 6, 4]]","[[2, 2, 0, 2, 2], [2, 2, 2, 0, 2], [2, 2, 2, 2, 2], [2, 2, 0, 0, 0], [2, 2, 2, 0, 2]]","[4, 6, 16, 3, 1]",20,12,2,0.057,0.057,0,"[]",0,"random",5,5,1545,0,170,170,171210,"attentional-mouselab",16,194935,6
"205","mouselab","False","[]","[[4, 5, 4, 6, 6], [4, 5, 5, 7, 5], [3, 3, 5, 2, 6], [2, 4, 5, 7, 5], [4, 4, 2, 7, 3]]","[[0, 2, 2, 2, 2], [0, 2, 2, 0, 2], [2, 2, 2, 0, 2], [0, 2, 2, 2, 2], [2, 2, 0, 2, 2]]","[6, 3, 1, 1, 19]",26,13,0,0.039,0.039,0,"[]",0,"extreme",5,5,1769,0,117,117,423744,"attentional-mouselab",17,198224,6
"206","mouselab","False","[]","[[2, 5, 3, 4, 3], [1, 5, 6, 6, 2], [4, 4, 8, 5, 8], [5, 8, 6, 2, 5], [5, 3, 4, 5, 6]]","[[0, 2, 2, 2, 2], [0, 2, 2, 2, 2], [2, 2, 0, 2, 0], [2, 0, 2, 2, 2], [2, 0, 2, 2, 2]]","[9, 4, 9, 5, 3]",12,14,2,0.055,0.055,0,"[]",0,"extreme",5,5,1633,0,165,165,255862,"attentional-mouselab",18,201240,6
"207","mouselab","False","[]","[[5, 4, 4, 3, 2], [3, 7, 3, 7, 4], [2, 6, 5, 4, 5], [4, 4, 5, 3, 4], [5, 5, 2, 8, 7]]","[[2, 2, 0, 0, 0], [2, 2, 0, 2, 2], [0, 2, 2, 2, 2], [2, 2, 2, 0, 2], [2, 2, 2, 2, 2]]","[3, 8, 3, 2, 14]",20,15,1,0.055,0.055,0,"[]",0,"random",5,5,1523,0,164,164,219091,"attentional-mouselab",19,204117,6
"208","mouselab","False","[]","[[5, 2, 6, 6, 3], [6, 5, 4, 6, 6], [8, 5, 5, 2, 5], [4, 4, 2, 3, 3], [5, 6, 6, 4, 4]]","[[2, 2, 2, 0, 2], [0, 0, 2, 2, 2], [0, 0, 2, 2, 2], [2, 2, 0, 2, 2], [2, 2, 2, 2, 2]]","[17, 2, 4, 1, 6]",22,16,3,0.05,0.05,0,"[]",0,"greedy",5,5,1611,0,149,149,523654,"attentional-mouselab",20,208262,6
"209","mouselab","False","[]","[[2, 4, 5, 4, 1], [7, 4, 4, 5, 6], [4, 6, 6, 3, 6], [4, 6, 5, 5, 6], [3, 4, 5, 5, 4]]","[[0, 2, 2, 2, 0], [0, 2, 0, 0, 2], [2, 2, 2, 2, 2], [2, 2, 2, 2, 0], [2, 2, 2, 2, 2]]","[13, 3, 2, 7, 5]",16,17,1,0.046,0.046,0,"[]",0,"extreme",5,5,1266,0,138,138,119929,"attentional-mouselab",21,211099,6
"210","mouselab","False","[]","[[8, 5, 3, 6, 5], [7, 5, 5, 9, 4], [5, 1, 4, 3, 8], [5, 7, 4, 6, 4], [4, 7, 4, 4, 1]]","[[0, 2, 2, 2, 2], [0, 2, 2, 0, 2], [2, 2, 2, 2, 2], [2, 2, 2, 2, 2], [0, 0, 2, 2, 0]]","[3, 3, 17, 6, 1]",22,18,2,0.04,0.04,0,"[]",0,"greedy",5,5,1336,0,120,120,852324,"attentional-mouselab",22,214001,6
"211","mouselab","False","[]","[[5, 7, 2, 5, 6], [6, 3, 5, 2, 1], [5, 5, 7, 7, 6], [5, 5, 3, 3, 5], [6, 6, 3, 3, 3]]","[[2, 2, 2, 2, 2], [2, 2, 2, 2, 2], [2, 2, 0, 0, 2], [0, 0, 2, 0, 2], [2, 2, 2, 2, 0]]","[1, 2, 14, 3, 10]",24,19,4,0.046,0.046,0,"[]",0,"random",5,5,1169,0,137,137,556222,"attentional-mouselab",23,216414,6
"212","mouselab","False","[]","[[7, 4, 6, 9, 3], [5, 8, 4, 4, 7], [4, 2, 5, 4, 3], [2, 7, 3, 7, 3], [0, 7, 3, 6, 5]]","[[2, 2, 0, 2, 2], [2, 2, 0, 2, 2], [2, 2, 2, 2, 0], [2, 0, 2, 2, 2], [2, 2, 0, 2, 0]]","[12, 9, 3, 3, 3]",18,20,0,0.049,0.049,0,"[]",0,"random",5,5,1266,0,147,147,997967,"attentional-mouselab",24,219280,6
"213","mouselab","False","[]","[[7, 6, 3, 6, 5], [4, 4, 2, 7, 3], [5, 5, 7, 6, 5], [6, 4, 6, 6, 3], [3, 3, 3, 5, 5]]","[[2, 2, 2, 0, 2], [2, 2, 0, 0, 2], [2, 2, 2, 2, 2], [2, 2, 2, 0, 0], [2, 0, 2, 2, 2]]","[5, 7, 4, 8, 6]",6,21,1,0.043,0.043,0,"[]",0,"greedy",5,5,1637,0,128,128,442967,"attentional-mouselab",25,222147,6
"214","mouselab","False","[]","[[5, 5, 6, 2, 4], [2, 5, 6, 4, 4], [3, 6, 5, 2, 4], [2, 4, 6, 6, 2], [5, 5, 4, 5, 5]]","[[2, 2, 2, 0, 2], [0, 0, 2, 2, 2], [2, 0, 2, 2, 2], [0, 2, 2, 2, 2], [2, 2, 0, 2, 2]]","[5, 2, 4, 13, 6]",14,22,4,0.033,0.033,0,"[]",0,"extreme",5,5,1761,0,100,100,984898,"attentional-mouselab",26,225150,6
"215","mouselab","False","[]","[[2, 10, 3, 3, 3], [3, 4, 5, 3, 7], [10, 4, 6, 5, 8], [6, 6, 7, 3, 8], [4, 7, 4, 3, 6]]","[[2, 2, 2, 0, 0], [2, 2, 2, 2, 0], [0, 2, 2, 2, 0], [0, 2, 2, 2, 2], [2, 2, 2, 2, 2]]","[3, 1, 6, 7, 13]",16,23,0,0.054,0.054,0,"[]",0,"random",5,5,1672,0,163,163,254970,"attentional-mouselab",27,228130,6
"216","mouselab","False","[]","[[3, 5, 7, 4, 7], [5, 4, 5, 4, 6], [4, 2, 5, 5, 4], [5, 6, 5, 2, 8], [9, 5, 6, 3, 3]]","[[2, 2, 0, 2, 2], [0, 2, 2, 2, 0], [2, 2, 2, 0, 2], [2, 2, 2, 2, 0], [2, 2, 2, 2, 0]]","[6, 3, 6, 6, 9]",6,24,2,0.057,0.057,0,"[]",0,"greedy",5,5,2079,0,171,171,913158,"attentional-mouselab",28,231339,6
"217","mouselab","False","[]","[[6, 3, 7, 5, 3], [6, 7, 4, 8, 7], [4, 8, 5, 6, 7], [3, 5, 4, 6, 9], [8, 4, 6, 6, 5]]","[[2, 2, 2, 0, 2], [2, 2, 2, 0, 2], [2, 2, 0, 2, 2], [0, 2, 2, 2, 0], [0, 2, 2, 2, 2]]","[1, 3, 10, 6, 10]",16,25,3,0.062,0.062,0,"[]",0,"greedy",5,5,2743,0,185,185,215266,"attentional-mouselab",29,235232,6
"218","mouselab","False","[]","[[4, 7, 3, 6, 4], [5, 6, 6, 3, 3], [5, 8, 5, 7, 6], [6, 7, 5, 6, 2], [8, 3, 5, 6, 3]]","[[0, 0, 2, 2, 2], [2, 2, 2, 2, 2], [2, 2, 2, 0, 2], [0, 2, 0, 0, 2], [2, 2, 2, 2, 2]]","[5, 7, 3, 3, 12]",14,26,1,0.053,0.053,0,"[]",0,"random",5,5,1396,0,158,158,419622,"attentional-mouselab",30,237762,6
"219","mouselab","False","[]","[[9, 6, 4, 2, 4], [6, 4, 3, 5, 6], [6, 9, 3, 6, 8], [7, 4, 7, 5, 6], [5, 5, 3, 5, 3]]","[[0, 2, 0, 2, 2], [0, 2, 2, 2, 2], [2, 2, 2, 0, 2], [0, 2, 2, 0, 2], [2, 2, 2, 2, 2]]","[1, 4, 16, 1, 8]",24,27,0,0.059,0.059,0,"[]",0,"greedy",5,5,1848,0,176,176,341165,"attentional-mouselab",31,241021,6
"220","mouselab","False","[]","[[6, 6, 5, 3, 7], [7, 6, 5, 5, 5], [7, 5, 3, 5, 3], [4, 4, 7, 5, 3], [4, 3, 6, 2, 4]]","[[2, 2, 2, 2, 2], [0, 0, 2, 2, 2], [0, 2, 0, 2, 2], [2, 2, 2, 2, 2], [2, 0, 2, 0, 2]]","[3, 4, 7, 14, 2]",18,28,4,0.037,0.037,0,"[]",0,"extreme",5,5,1335,0,112,112,913635,"attentional-mouselab",32,243649,6
"221","mouselab","False","[]","[[7, 6, 7, 3, 7], [5, 7, 10, 5, 7], [4, 6, 4, 4, 4], [8, 6, 5, 5, 8], [4, 5, 6, 6, 6]]","[[2, 2, 2, 0, 2], [2, 2, 2, 2, 0], [2, 2, 2, 2, 2], [2, 0, 2, 2, 0], [2, 0, 0, 2, 2]]","[1, 6, 9, 3, 11]",16,29,0,0.047,0.047,0,"[]",0,"random",5,5,1326,0,141,141,309385,"attentional-mouselab",33,246137,6
"222","mouselab","False","[]","[[4, 3, 4, 5, 3], [5, 8, 7, 5, 7], [7, 4, 6, 4, 7], [3, 6, 7, 2, 6], [4, 6, 4, 6, 3]]","[[0, 2, 0, 2, 0], [2, 2, 2, 2, 2], [2, 2, 2, 2, 2], [2, 0, 2, 0, 2], [2, 2, 2, 2, 0]]","[4, 4, 12, 3, 7]",14,30,1,0.051,0.051,0,"[]",0,"random",5,5,1634,0,152,152,354800,"attentional-mouselab",34,249012,6
"223","mouselab","False","[]","[[5, 4, 7, 4, 5], [3, 4, 7, 3, 7], [8, 6, 7, 5, 4], [4, 4, 5, 4, 1], [3, 7, 4, 10, 3]]","[[2, 0, 2, 2, 0], [2, 2, 2, 2, 2], [2, 2, 2, 2, 2], [2, 0, 2, 2, 2], [0, 0, 0, 2, 2]]","[1, 1, 8, 17, 3]",26,31,3,0.048,0.048,0,"[]",0,"random",5,5,1404,0,145,145,226739,"attentional-mouselab",35,252246,6
"224","mouselab","False","[]","[[5, 4, 9, 7, 7], [2, 4, 4, 6, 8], [5, 6, 4, 7, 2], [3, 8, 2, 5, 6], [6, 7, 4, 5, 5]]","[[2, 2, 2, 0, 2], [2, 2, 2, 2, 0], [0, 2, 2, 0, 2], [2, 0, 2, 2, 2], [2, 2, 2, 2, 0]]","[6, 4, 9, 10, 1]",14,32,2,0.043,0.043,0,"[]",0,"greedy",5,5,1295,0,130,130,255015,"attentional-mouselab",36,254695,6
"225","mouselab","True","[2, 2, 0, 0, 5, 5]","[[8, 4, 5, 7, 7], [5, 6, 3, 3, 8], [9, 6, 7, 1, 1], [4, 3, 4, 4, 4], [7, 6, 8, 6, 4]]","[[2, 0, 2, 2, 2], [2, 0, 0, 2, 2], [2, 2, 2, 2, 2], [2, 2, 2, 2, 2], [0, 2, 0, 2, 0]]","[4, 9, 6, 8, 3]",10,1,0,0.061,0.059,0.002,"[2, 0, 5]",3,"random",5,5,9869,6,184,178,103439,"attentional-mouselab",4,487576,7
"226","mouselab","True","[4, 4, 4, 9, 9]","[[5, 4, 9, 6, 5], [2, 4, 6, 7, 5], [3, 7, 6, 7, 3], [3, 8, 2, 8, 6], [8, 1, 4, 2, 4]]","[[2, 2, 0, 2, 2], [0, 2, 0, 2, 2], [0, 2, 2, 2, 2], [0, 2, 2, 2, 0], [2, 2, 2, 2, 2]]","[1, 4, 6, 4, 15]",18,2,2,0.046,0.0446666666666667,0.00133333333333333,"[4, 9]",2,"random",5,5,17438,4,137,133,524333,"attentional-mouselab",5,506792,7
"227","mouselab","False","[0, 0, 3, 3, 8, 8, 2, 2]","[[3, 5, 7, 4, 7], [5, 4, 5, 4, 6], [4, 2, 5, 5, 4], [5, 6, 5, 2, 8], [9, 5, 6, 3, 3]]","[[2, 2, 2, 2, 2], [0, 2, 2, 2, 2], [2, 0, 2, 0, 2], [2, 2, 2, 0, 2], [0, 2, 2, 2, 0]]","[4, 7, 4, 13, 2]",16,3,2,0.053,0.0503333333333333,0.00266666666666667,"[0, 3, 8, 2]",4,"extreme",5,5,23761,8,160,152,913158,"attentional-mouselab",7,537763,7
"228","mouselab","False","[0, 0, 0, 3, 3]","[[2, 2, 8, 8, 5], [5, 2, 5, 2, 8], [4, 7, 5, 5, 2], [5, 5, 7, 4, 5], [7, 8, 3, 4, 4]]","[[2, 0, 2, 2, 0], [0, 2, 2, 2, 0], [0, 2, 2, 2, 2], [2, 2, 2, 2, 2], [2, 2, 2, 2, 0]]","[5, 14, 5, 3, 3]",16,4,3,0.039,0.0376666666666667,0.00133333333333333,"[0, 3]",2,"random",5,5,10137,4,117,113,248533,"attentional-mouselab",8,550109,7
"229","mouselab","False","[2, 2]","[[4, 6, 7, 6, 7], [4, 4, 7, 6, 4], [6, 7, 4, 6, 4], [7, 7, 0, 6, 9], [4, 5, 3, 6, 6]]","[[2, 2, 2, 2, 2], [2, 2, 0, 2, 2], [2, 0, 2, 0, 2], [2, 2, 0, 0, 0], [2, 2, 2, 2, 2]]","[5, 10, 7, 7, 1]",12,5,2,0.045,0.0443333333333333,0.000666666666666667,"[2]",1,"greedy",5,5,8389,2,136,134,5706,"attentional-mouselab",9,561009,7
"230","mouselab","False","[]","[[4, 7, 5, 4, 5], [5, 4, 4, 4, 4], [7, 10, 8, 5, 4], [8, 8, 5, 5, 4], [4, 4, 4, 7, 6]]","[[2, 0, 0, 2, 2], [2, 2, 2, 2, 2], [2, 0, 2, 2, 2], [2, 0, 2, 2, 2], [2, 2, 0, 2, 0]]","[2, 9, 8, 4, 7]",12,6,1,0.063,0.063,0,"[]",0,"greedy",5,5,5726,0,190,190,964544,"attentional-mouselab",10,569286,7
"231","mouselab","False","[0, 0, 0, 2, 2, 1, 1, 3, 3]","[[3, 6, 5, 8, 5], [6, 2, 5, 5, 8], [4, 8, 1, 6, 4], [5, 4, 6, 6, 3], [2, 4, 1, 7, 0]]","[[2, 2, 2, 2, 2], [2, 2, 0, 2, 2], [2, 2, 0, 2, 2], [0, 2, 2, 2, 2], [0, 2, 0, 2, 0]]","[11, 2, 2, 1, 14]",26,7,3,0.071,0.0683333333333333,0.00266666666666667,"[0, 2, 1, 3]",4,"extreme",5,5,14976,8,214,206,105705,"attentional-mouselab",11,591429,7
"232","mouselab","False","[18, 18]","[[3, 4, 3, 2, 5], [5, 5, 3, 5, 3], [3, 4, 5, 8, 7], [7, 5, 5, 5, 7], [5, 3, 4, 6, 8]]","[[2, 2, 2, 2, 0], [2, 0, 2, 2, 2], [2, 2, 2, 2, 0], [2, 2, 2, 2, 0], [0, 2, 2, 2, 0]]","[1, 6, 3, 11, 9]",16,8,4,0.064,0.0633333333333333,0.000666666666666667,"[18]",1,"greedy",5,5,7641,2,193,191,517909,"attentional-mouselab",12,600902,7
"233","mouselab","False","[16, 16, 16]","[[5, 4, 6, 2, 3], [8, 1, 7, 6, 3], [3, 7, 7, 4, 7], [5, 8, 4, 4, 9], [8, 6, 3, 4, 4]]","[[2, 2, 0, 2, 2], [0, 2, 2, 2, 2], [2, 0, 0, 2, 2], [2, 2, 2, 2, 2], [0, 2, 0, 2, 2]]","[2, 3, 18, 5, 2]",24,9,1,0.063,0.0623333333333333,0.000666666666666667,"[16]",1,"greedy",5,5,9040,2,189,187,66810,"attentional-mouselab",13,611779,7
"234","mouselab","False","[20, 20, 21, 21, 23, 23, 22, 22, 24, 24]","[[4, 2, 6, 2, 6], [7, 5, 5, 2, 3], [5, 4, 4, 4, 0], [5, 3, 5, 6, 5], [3, 4, 6, 6, 9]]","[[2, 2, 2, 0, 2], [0, 2, 2, 2, 2], [0, 0, 2, 2, 2], [0, 0, 2, 2, 2], [2, 2, 2, 2, 2]]","[7, 7, 2, 4, 10]",12,10,4,0.058,0.0546666666666667,0.00333333333333333,"[20, 21, 23, 22, 24]",5,"random",5,5,15911,10,173,163,971039,"attentional-mouselab",14,629575,7
"235","mouselab","False","[6, 6, 8, 8, 7, 7, 9, 9]","[[2, 7, 2, 5, 8], [7, 5, 3, 5, 4], [6, 5, 3, 4, 7], [6, 3, 4, 4, 5], [7, 5, 5, 4, 5]]","[[2, 2, 0, 2, 0], [0, 2, 2, 2, 2], [2, 2, 2, 2, 2], [2, 2, 0, 2, 0], [0, 2, 2, 2, 2]]","[3, 18, 2, 3, 4]",24,11,0,0.063,0.0603333333333333,0.00266666666666667,"[6, 8, 7, 9]",4,"greedy",5,5,17725,8,190,182,777788,"attentional-mouselab",15,649054,7
"236","mouselab","False","[17, 17]","[[6, 6, 7, 4, 5], [4, 2, 7, 6, 5], [6, 3, 4, 7, 7], [4, 8, 8, 5, 5], [6, 6, 10, 6, 4]]","[[2, 2, 2, 2, 2], [2, 0, 0, 2, 0], [2, 2, 2, 2, 2], [2, 0, 2, 2, 0], [2, 2, 0, 2, 2]]","[4, 10, 1, 12, 3]",20,12,2,0.076,0.0753333333333333,0.000666666666666667,"[17]",1,"extreme",5,5,8407,2,228,226,961800,"attentional-mouselab",16,659391,7
"237","mouselab","False","[21, 21]","[[5, 7, 4, 3, 5], [8, 5, 7, 5, 7], [1, 6, 6, 5, 9], [7, 4, 6, 3, 6], [3, 7, 6, 4, 1]]","[[2, 2, 2, 2, 2], [0, 2, 2, 2, 2], [0, 0, 2, 2, 0], [2, 2, 2, 2, 2], [0, 2, 2, 2, 0]]","[3, 1, 12, 5, 9]",18,13,1,0.06,0.0593333333333333,0.000666666666666667,"[21]",1,"extreme",5,5,16899,2,181,179,592275,"attentional-mouselab",17,678020,7
"238","mouselab","False","[17, 17, 17, 16, 16, 19, 19, 18, 18]","[[5, 6, 4, 1, 4], [3, 6, 4, 3, 5], [6, 6, 7, 9, 2], [7, 5, 3, 4, 3], [5, 5, 4, 6, 6]]","[[0, 2, 2, 0, 2], [2, 2, 2, 2, 2], [2, 2, 2, 2, 2], [0, 2, 2, 2, 2], [2, 0, 0, 2, 0]]","[7, 1, 5, 16, 1]",22,14,0,0.062,0.0593333333333333,0.00266666666666667,"[17, 16, 19, 18]",4,"random",5,5,20211,8,185,177,401945,"attentional-mouselab",18,699730,7
"239","mouselab","False","[3, 3]","[[2, 8, 6, 5, 5], [3, 4, 7, 3, 6], [1, 5, 5, 6, 5], [5, 0, 4, 8, 4], [4, 6, 6, 5, 1]]","[[2, 2, 0, 2, 2], [2, 2, 0, 0, 2], [2, 2, 2, 2, 2], [2, 2, 2, 2, 0], [2, 2, 0, 0, 2]]","[9, 3, 7, 4, 7]",10,15,2,0.056,0.0553333333333333,0.000666666666666667,"[3]",1,"random",5,5,12696,2,168,166,657364,"attentional-mouselab",19,713725,7
"240","mouselab","False","[15, 15, 19, 19, 16, 16, 21, 21, 23, 23]","[[5, 6, 4, 4, 5], [2, 1, 5, 8, 4], [6, 3, 3, 6, 4], [5, 6, 5, 3, 3], [6, 5, 5, 6, 6]]","[[2, 2, 2, 2, 2], [0, 0, 2, 0, 2], [2, 2, 2, 2, 2], [2, 2, 0, 0, 2], [0, 2, 2, 2, 2]]","[5, 7, 1, 11, 6]",12,16,3,0.05,0.0466666666666667,0.00333333333333333,"[15, 19, 16, 21, 23]",5,"extreme",5,5,41741,10,151,141,214646,"attentional-mouselab",20,757119,7
"241","mouselab","False","[2, 2, 1, 1, 0, 0, 4, 4]","[[4, 2, 5, 6, 3], [6, 7, 7, 7, 3], [9, 4, 5, 7, 5], [8, 6, 4, 4, 7], [5, 10, 4, 6, 5]]","[[2, 2, 2, 0, 2], [0, 2, 2, 0, 2], [0, 2, 2, 2, 2], [0, 2, 2, 2, 2], [2, 0, 2, 2, 2]]","[19, 3, 2, 2, 4]",26,17,3,0.06,0.0573333333333333,0.00266666666666667,"[2, 1, 0, 4]",4,"greedy",5,5,15931,8,181,173,325756,"attentional-mouselab",21,774379,7
"242","mouselab","False","[24, 24, 7, 7, 8, 8, 5, 5, 6, 6]","[[4, 6, 1, 3, 7], [4, 3, 5, 3, 6], [4, 6, 4, 3, 5], [4, 8, 2, 6, 6], [8, 2, 4, 4, 4]]","[[2, 2, 2, 2, 2], [2, 2, 2, 2, 0], [0, 2, 2, 2, 0], [2, 0, 0, 0, 2], [2, 2, 2, 2, 2]]","[5, 11, 4, 2, 8]",14,18,4,0.055,0.0516666666666667,0.00333333333333333,"[24, 7, 8, 5, 6]",5,"random",5,5,20573,10,165,155,244191,"attentional-mouselab",22,796203,7
"243","mouselab","False","[8, 8, 8, 14, 14]","[[8, 8, 6, 2, 5], [4, 7, 6, 6, 8], [1, 3, 3, 6, 3], [1, 2, 3, 3, 5], [5, 4, 7, 3, 5]]","[[0, 2, 2, 0, 2], [2, 2, 2, 2, 0], [0, 2, 2, 0, 2], [0, 2, 2, 2, 2], [2, 2, 2, 2, 2]]","[6, 7, 9, 4, 4]",8,19,3,0.044,0.0426666666666667,0.00133333333333333,"[8, 14]",2,"greedy",5,5,17771,4,132,128,899713,"attentional-mouselab",23,816121,7
"244","mouselab","False","[21, 21]","[[3, 4, 4, 2, 7], [5, 5, 5, 5, 4], [5, 5, 5, 7, 4], [4, 2, 4, 3, 8], [5, 6, 6, 2, 6]]","[[2, 2, 2, 2, 0], [2, 2, 2, 2, 2], [2, 0, 2, 2, 2], [0, 2, 2, 2, 0], [2, 2, 2, 0, 0]]","[5, 3, 8, 1, 13]",18,20,1,0.052,0.0513333333333333,0.000666666666666667,"[21]",1,"greedy",5,5,11941,2,155,153,913985,"attentional-mouselab",24,829437,7
"245","mouselab","False","[10, 10]","[[4, 3, 6, 3, 6], [7, 3, 7, 4, 5], [6, 6, 4, 6, 4], [4, 3, 5, 4, 6], [5, 6, 6, 5, 7]]","[[2, 0, 2, 2, 2], [0, 0, 2, 2, 2], [2, 2, 0, 2, 2], [2, 2, 2, 2, 2], [0, 2, 2, 2, 0]]","[3, 3, 15, 6, 3]",18,21,0,0.054,0.0533333333333333,0.000666666666666667,"[10]",1,"extreme",5,5,16503,2,162,160,565160,"attentional-mouselab",25,847223,7
"246","mouselab","False","[21, 21, 6, 6, 22, 22]","[[6, 3, 7, 5, 5], [5, 7, 7, 3, 6], [4, 3, 6, 5, 5], [4, 4, 6, 7, 2], [7, 4, 4, 3, 5]]","[[2, 2, 0, 2, 2], [2, 2, 0, 2, 2], [0, 2, 0, 2, 2], [2, 0, 2, 2, 2], [2, 2, 2, 0, 2]]","[1, 11, 1, 6, 11]",20,22,2,0.057,0.055,0.002,"[21, 6, 22]",3,"greedy",5,5,17107,6,170,164,558822,"attentional-mouselab",26,865395,7
"247","mouselab","False","[10, 10, 2, 2, 1, 1, 11, 11]","[[5, 6, 3, 3, 5], [5, 5, 5, 5, 5], [5, 4, 6, 2, 6], [6, 3, 7, 5, 1], [7, 4, 7, 0, 6]]","[[2, 2, 2, 2, 2], [2, 2, 2, 2, 2], [2, 2, 0, 0, 2], [2, 2, 2, 2, 0], [0, 0, 2, 0, 2]]","[7, 6, 12, 2, 3]",14,23,2,0.053,0.0503333333333333,0.00266666666666667,"[10, 2, 1, 11]",4,"extreme",5,5,21893,8,158,150,674696,"attentional-mouselab",27,888423,7
"248","mouselab","False","[]","[[3, 4, 4, 8, 3], [3, 6, 7, 7, 5], [5, 5, 6, 3, 2], [7, 5, 4, 6, 6], [5, 4, 5, 8, 7]]","[[2, 2, 2, 0, 2], [2, 2, 2, 0, 2], [2, 2, 0, 2, 2], [2, 2, 2, 0, 2], [2, 2, 0, 0, 2]]","[1, 13, 5, 1, 10]",22,24,3,0.067,0.067,0,"[]",0,"greedy",5,5,4462,0,200,200,969704,"attentional-mouselab",28,894014,7
"249","mouselab","False","[4, 4, 0, 0, 2, 2]","[[4, 0, 6, 6, 5], [6, 6, 3, 3, 3], [5, 5, 5, 4, 3], [5, 4, 2, 4, 6], [4, 7, 3, 5, 4]]","[[2, 0, 2, 2, 2], [2, 2, 2, 0, 2], [2, 2, 2, 2, 2], [2, 0, 0, 2, 2], [2, 0, 0, 2, 2]]","[16, 1, 6, 1, 6]",20,25,2,0.05,0.048,0.002,"[4, 0, 2]",3,"extreme",5,5,14821,6,149,143,374283,"attentional-mouselab",29,909902,7
"250","mouselab","False","[12, 12, 17, 17]","[[6, 2, 6, 5, 5], [9, 7, 2, 6, 4], [5, 4, 6, 3, 4], [3, 4, 6, 4, 5], [6, 4, 4, 4, 8]]","[[2, 2, 2, 2, 0], [2, 2, 2, 0, 2], [2, 0, 2, 2, 2], [0, 0, 2, 0, 2], [2, 2, 2, 2, 2]]","[2, 5, 11, 11, 1]",20,26,2,0.053,0.0516666666666667,0.00133333333333333,"[12, 17]",2,"random",5,5,8613,4,158,154,120136,"attentional-mouselab",30,920152,7
"251","mouselab","False","[13, 13, 12, 12, 14, 14, 11, 11]","[[6, 1, 5, 5, 7], [3, 5, 6, 5, 5], [3, 4, 4, 3, 4], [6, 5, 4, 5, 4], [4, 5, 7, 5, 3]]","[[2, 0, 2, 2, 2], [0, 2, 2, 2, 2], [0, 2, 2, 2, 2], [2, 2, 2, 2, 2], [0, 2, 2, 0, 0]]","[6, 4, 12, 3, 5]",12,27,3,0.042,0.0393333333333333,0.00266666666666667,"[13, 12, 14, 11]",4,"extreme",5,5,24043,8,126,118,167262,"attentional-mouselab",31,945700,7
"252","mouselab","False","[19, 19, 18, 18, 16, 16]","[[6, 4, 4, 3, 5], [4, 3, 2, 5, 1], [7, 7, 4, 6, 6], [7, 5, 3, 5, 3], [4, 2, 7, 4, 7]]","[[2, 2, 2, 0, 2], [2, 2, 0, 2, 0], [2, 2, 2, 2, 0], [2, 2, 0, 2, 2], [2, 2, 2, 0, 2]]","[3, 1, 2, 19, 5]",26,28,3,0.047,0.045,0.002,"[19, 18, 16]",3,"random",5,5,12153,6,141,135,179546,"attentional-mouselab",32,958904,7
"253","mouselab","False","[16, 16, 18, 18, 19, 19, 8, 8]","[[5, 6, 3, 6, 6], [4, 5, 7, 4, 2], [3, 3, 5, 4, 5], [4, 4, 5, 5, 3], [1, 5, 4, 7, 6]]","[[2, 0, 2, 2, 2], [2, 2, 2, 2, 0], [0, 0, 2, 2, 0], [2, 2, 2, 2, 2], [0, 2, 2, 2, 2]]","[4, 6, 3, 15, 2]",18,29,3,0.05,0.0473333333333333,0.00266666666666667,"[16, 18, 19, 8]",4,"extreme",5,5,17637,8,149,141,982830,"attentional-mouselab",33,977641,7
"254","mouselab","False","[22, 22]","[[9, 4, 3, 6, 5], [4, 7, 3, 2, 3], [6, 7, 3, 4, 5], [9, 3, 7, 5, 5], [3, 5, 6, 5, 2]]","[[2, 2, 0, 2, 2], [2, 2, 0, 2, 2], [0, 2, 0, 2, 2], [0, 2, 2, 2, 2], [0, 2, 2, 2, 2]]","[1, 2, 7, 3, 17]",24,30,2,0.051,0.0503333333333333,0.000666666666666667,"[22]",1,"random",5,5,8079,2,153,151,857082,"attentional-mouselab",34,986994,7
"255","mouselab","False","[]","[[5, 6, 6, 6, 5], [3, 7, 7, 4, 3], [4, 6, 6, 4, 7], [4, 4, 8, 5, 5], [7, 6, 8, 7, 5]]","[[2, 0, 2, 2, 0], [2, 2, 0, 0, 2], [2, 0, 2, 2, 2], [0, 2, 2, 2, 2], [2, 2, 2, 2, 2]]","[3, 18, 3, 4, 2]",24,31,2,0.07,0.07,0,"[]",0,"random",5,5,7041,0,210,210,69600,"attentional-mouselab",35,995208,7
"256","mouselab","False","[23, 23, 16, 16]","[[5, 8, 4, 4, 6], [5, 6, 7, 7, 3], [6, 5, 4, 5, 3], [1, 7, 7, 3, 7], [7, 5, 6, 5, 4]]","[[2, 0, 2, 2, 2], [2, 2, 2, 2, 2], [2, 2, 0, 0, 2], [2, 2, 2, 0, 2], [2, 0, 2, 2, 0]]","[2, 3, 4, 10, 11]",18,32,1,0.06,0.0586666666666667,0.00133333333333333,"[23, 16]",2,"random",5,5,14784,4,179,175,997688,"attentional-mouselab",36,1011643,7
"257","mouselab","True","[0, 0, 1, 1, 2, 2, 3, 3, 4, 4, 5, 5, 10, 10, 15, 15, 6, 6, 12, 12, 17, 17, 22, 22, 23, 23, 18, 18, 13, 13, 8, 8, 14, 14, 19, 19, 24, 24, 10]","[[6, 5, 5, 5, 5], [6, 4, 5, 3, 4], [5, 3, 4, 5, 6], [6, 2, 7, 2, 6], [4, 7, 5, 6, 4]]","[[2, 2, 2, 2, 2], [2, 2, 0, 2, 0], [2, 0, 2, 2, 2], [2, 0, 2, 2, 2], [0, 0, 2, 2, 2]]","[6, 3, 2, 2, 17]",22,1,1,0.057,0.0443333333333333,0.0126666666666667,"[0, 1, 2, 3, 4, 5, 10, 15, 6, 12, 17, 22, 23, 18, 13, 8, 14, 19, 24]",19,"random",5,5,26846,38,171,133,700067,"attentional-mouselab",4,134606,8
"258","mouselab","True","[0, 0, 5, 5, 10, 10, 20, 20]","[[5, 6, 6, 6, 5], [3, 7, 7, 4, 3], [4, 6, 6, 4, 7], [4, 4, 8, 5, 5], [7, 6, 8, 7, 5]]","[[2, 0, 2, 2, 0], [2, 2, 0, 0, 2], [2, 0, 2, 2, 2], [0, 2, 2, 2, 2], [2, 2, 2, 2, 2]]","[8, 3, 8, 3, 8]",12,2,0,0.05,0.0473333333333333,0.00266666666666667,"[0, 5, 10, 20]",4,"random",5,5,6786,8,149,141,69600,"attentional-mouselab",5,145157,8
"259","mouselab","False","[]","[[3, 6, 7, 6, 3], [5, 8, 4, 4, 5], [3, 5, 5, 5, 5], [3, 4, 2, 3, 7], [6, 4, 5, 3, 6]]","[[2, 0, 2, 2, 2], [0, 2, 0, 2, 2], [2, 0, 2, 2, 2], [2, 2, 2, 0, 2], [2, 2, 2, 0, 2]]","[4, 3, 9, 1, 13]",20,3,1,0.05,0.05,0,"[]",0,"random",5,5,6873,0,149,149,270460,"attentional-mouselab",7,157381,8
"260","mouselab","False","[]","[[7, 5, 5, 5, 6], [4, 5, 6, 6, 8], [6, 7, 7, 4, 4], [3, 4, 6, 5, 7], [5, 7, 3, 7, 9]]","[[0, 2, 2, 2, 0], [0, 2, 2, 2, 0], [2, 2, 2, 2, 2], [2, 2, 2, 2, 0], [2, 2, 2, 2, 0]]","[7, 2, 3, 12, 6]",14,4,4,0.069,0.069,0,"[]",0,"greedy",5,5,2672,0,208,208,377961,"attentional-mouselab",8,161113,8
"261","mouselab","False","[5, 5]","[[1, 5, 4, 4, 6], [5, 8, 4, 5, 6], [4, 4, 7, 5, 6], [5, 2, 5, 7, 9], [4, 2, 7, 4, 7]]","[[0, 2, 2, 2, 2], [2, 0, 2, 2, 2], [2, 2, 2, 2, 2], [0, 0, 2, 2, 0], [0, 2, 2, 2, 2]]","[1, 11, 12, 1, 5]",22,5,0,0.043,0.0423333333333333,0.000666666666666667,"[5]",1,"extreme",5,5,4772,2,129,127,820001,"attentional-mouselab",9,167354,8
"262","mouselab","False","[4, 4]","[[2, 4, 5, 4, 1], [7, 4, 4, 5, 6], [4, 6, 6, 3, 6], [4, 6, 5, 5, 6], [3, 4, 5, 5, 4]]","[[2, 2, 2, 2, 2], [2, 2, 0, 0, 0], [2, 2, 0, 2, 0], [2, 2, 2, 2, 0], [2, 2, 2, 2, 2]]","[4, 4, 10, 9, 3]",14,6,4,0.051,0.0503333333333333,0.000666666666666667,"[4]",1,"greedy",5,5,2703,2,154,152,119929,"attentional-mouselab",10,171186,8
"263","mouselab","False","[4, 4]","[[2, 2, 8, 8, 5], [5, 2, 5, 2, 8], [4, 7, 5, 5, 2], [5, 5, 7, 4, 5], [7, 8, 3, 4, 4]]","[[0, 0, 2, 2, 2], [2, 0, 2, 2, 0], [2, 2, 2, 2, 2], [2, 2, 2, 2, 2], [2, 0, 2, 2, 0]]","[10, 3, 5, 4, 8]",12,7,4,0.045,0.0443333333333333,0.000666666666666667,"[4]",1,"extreme",5,5,7935,2,136,134,248533,"attentional-mouselab",11,180800,8
"264","mouselab","False","[0, 0, 21, 21, 20, 20]","[[6, 8, 1, 4, 4], [5, 6, 4, 7, 5], [2, 4, 4, 6, 5], [6, 10, 4, 5, 5], [5, 5, 5, 7, 4]]","[[2, 0, 2, 2, 2], [0, 2, 2, 2, 2], [2, 2, 0, 2, 2], [0, 0, 2, 2, 2], [2, 2, 2, 0, 2]]","[13, 3, 4, 2, 8]",18,8,1,0.066,0.064,0.002,"[0, 21, 20]",3,"greedy",5,5,18333,6,198,192,868698,"attentional-mouselab",12,200688,8
"265","mouselab","False","[]","[[4, 7, 7, 3, 5], [7, 7, 6, 4, 4], [9, 5, 3, 2, 5], [5, 6, 2, 8, 4], [8, 4, 2, 4, 8]]","[[2, 2, 2, 2, 2], [2, 0, 0, 2, 0], [2, 0, 2, 0, 2], [2, 2, 2, 2, 0], [2, 2, 2, 2, 2]]","[3, 10, 9, 5, 3]",14,9,1,0.059,0.059,0,"[]",0,"random",5,5,5768,0,178,178,874208,"attentional-mouselab",13,208022,8
"266","mouselab","False","[15, 10, 10, 11, 11]","[[8, 5, 8, 2, 2], [8, 5, 4, 4, 4], [4, 3, 4, 6, 6], [5, 4, 7, 3, 2], [2, 3, 5, 7, 6]]","[[0, 2, 0, 0, 2], [0, 2, 2, 2, 2], [2, 2, 2, 2, 2], [2, 0, 2, 2, 2], [0, 2, 2, 2, 2]]","[3, 6, 15, 5, 1]",18,10,0,0.053,0.0513333333333333,0.00166666666666667,"[10, 11]",2,"extreme",5,5,8540,5,159,154,733141,"attentional-mouselab",14,217560,8
"267","mouselab","False","[]","[[8, 2, 5, 5, 2], [7, 6, 4, 3, 8], [4, 4, 4, 6, 5], [4, 6, 3, 6, 6], [7, 4, 2, 5, 6]]","[[0, 0, 2, 2, 2], [2, 2, 2, 0, 2], [2, 2, 2, 2, 2], [2, 2, 2, 2, 0], [2, 2, 0, 0, 2]]","[5, 3, 8, 6, 8]",8,11,3,0.053,0.053,0,"[]",0,"extreme",5,5,5577,0,158,158,245920,"attentional-mouselab",15,224198,8
"268","mouselab","False","[]","[[4, 6, 3, 6, 4], [7, 8, 6, 5, 3], [5, 6, 5, 6, 5], [9, 3, 8, 5, 8], [5, 2, 6, 6, 6]]","[[2, 0, 2, 2, 0], [2, 2, 2, 2, 0], [0, 2, 2, 2, 2], [0, 2, 0, 2, 2], [2, 2, 2, 2, 2]]","[3, 6, 6, 14, 1]",16,12,0,0.072,0.072,0,"[]",0,"random",5,5,4849,0,215,215,268311,"attentional-mouselab",16,230512,8
"269","mouselab","False","[10, 10]","[[5, 8, 4, 6, 5], [8, 5, 6, 7, 3], [6, 8, 7, 7, 9], [8, 4, 4, 7, 5], [4, 5, 5, 4, 5]]","[[2, 0, 2, 2, 2], [0, 2, 0, 2, 2], [2, 2, 2, 2, 2], [0, 2, 2, 2, 2], [0, 0, 2, 2, 2]]","[1, 2, 12, 11, 4]",22,13,0,0.066,0.0653333333333333,0.000666666666666667,"[10]",1,"greedy",5,5,4567,2,197,195,603938,"attentional-mouselab",17,236112,8
"270","mouselab","False","[13, 13, 4, 4, 14, 14]","[[6, 3, 5, 7, 2], [8, 4, 5, 8, 5], [3, 1, 3, 2, 7], [4, 5, 6, 6, 3], [4, 7, 2, 7, 7]]","[[2, 0, 2, 0, 2], [0, 2, 2, 2, 2], [2, 0, 2, 2, 2], [2, 2, 2, 2, 2], [0, 2, 0, 2, 2]]","[11, 5, 10, 1, 3]",18,14,3,0.055,0.053,0.002,"[13, 4, 14]",3,"extreme",5,5,9759,6,164,158,204565,"attentional-mouselab",18,246960,8
"271","mouselab","False","[8, 8, 3, 3]","[[2, 5, 6, 3, 2], [3, 6, 5, 3, 5], [4, 4, 10, 4, 4], [5, 4, 2, 6, 3], [5, 6, 2, 3, 2]]","[[0, 2, 2, 2, 0], [0, 2, 2, 2, 2], [2, 2, 0, 2, 2], [2, 2, 0, 2, 2], [2, 2, 2, 0, 2]]","[6, 7, 2, 3, 12]",14,15,3,0.034,0.0326666666666667,0.00133333333333333,"[8, 3]",2,"extreme",5,5,8917,4,101,97,410833,"attentional-mouselab",19,257366,8
"272","mouselab","False","[10, 10, 11, 11]","[[3, 5, 3, 5, 7], [6, 8, 4, 7, 3], [5, 8, 4, 4, 4], [8, 1, 5, 8, 7], [5, 4, 8, 5, 8]]","[[2, 2, 2, 2, 2], [2, 0, 2, 2, 0], [2, 2, 2, 2, 2], [0, 0, 2, 0, 2], [0, 2, 2, 2, 2]]","[3, 6, 10, 4, 7]",10,16,1,0.058,0.0566666666666667,0.00133333333333333,"[10, 11]",2,"extreme",5,5,6871,4,175,171,417562,"attentional-mouselab",20,265814,8
"273","mouselab","False","[18, 18]","[[6, 4, 5, 5, 5], [2, 0, 5, 6, 5], [3, 3, 3, 7, 5], [4, 6, 4, 6, 9], [4, 5, 5, 6, 4]]","[[2, 2, 2, 2, 0], [0, 2, 2, 0, 2], [0, 2, 2, 2, 2], [0, 2, 2, 2, 2], [2, 2, 2, 2, 0]]","[4, 11, 2, 12, 1]",22,17,3,0.059,0.0583333333333333,0.000666666666666667,"[18]",1,"random",5,5,6335,2,178,176,939127,"attentional-mouselab",21,273359,8
"274","mouselab","False","[]","[[4, 6, 5, 4, 4], [4, 4, 4, 4, 7], [4, 3, 7, 5, 5], [7, 3, 4, 3, 5], [4, 5, 5, 3, 6]]","[[2, 2, 2, 2, 2], [2, 2, 2, 2, 0], [2, 0, 2, 2, 2], [0, 0, 2, 2, 2], [0, 2, 0, 2, 2]]","[4, 2, 2, 12, 10]",20,18,0,0.052,0.052,0,"[]",0,"extreme",5,5,8072,0,156,156,800997,"attentional-mouselab",22,282524,8
"275","mouselab","False","[3, 3]","[[4, 4, 4, 4, 3], [6, 5, 6, 3, 5], [7, 8, 7, 5, 3], [5, 4, 2, 8, 8], [6, 5, 1, 8, 4]]","[[2, 2, 2, 2, 2], [2, 2, 2, 2, 2], [2, 0, 2, 0, 2], [2, 2, 0, 0, 2], [2, 2, 0, 2, 0]]","[11, 3, 3, 11, 2]",20,19,3,0.057,0.0563333333333333,0.000666666666666667,"[3]",1,"random",5,5,4307,2,172,170,699839,"attentional-mouselab",23,290946,8
"276","mouselab","False","[12, 12]","[[4, 6, 7, 6, 6], [5, 7, 6, 7, 4], [5, 6, 4, 8, 4], [6, 6, 7, 7, 6], [6, 5, 2, 5, 5]]","[[2, 2, 0, 2, 0], [2, 0, 2, 2, 2], [2, 2, 2, 2, 2], [2, 0, 0, 2, 2], [2, 2, 2, 0, 2]]","[11, 5, 11, 1, 2]",20,20,2,0.054,0.0533333333333333,0.000666666666666667,"[12]",1,"random",5,5,7167,2,162,160,942626,"attentional-mouselab",24,299168,8
