"","type","is_practice","click_values","payoff_matrix","cost_matrix","weights","weights_deviation","trial_num","selected_option","gross_earnings","net_earnings","click_cost","uncovered_values","num_values_revealed","nudge_type","num_baskets","num_features","reaction_time","points_click_cost","points_action_utility","points_metalevel_reward","problem_id","trial_type","trial_index","time_elapsed","participant_id"
"1","mouselab","True","[6, 12, 6, 6, 1, 3, 8, 19]","[[8, 4, 3, 6, 7], [5, 6, 5, 4, 2], [6, 5, 4, 7, 1], [5, 7, 3, 7, 1], [4, 6, 6, 8, 5]]","[[3, 1, 3, 1, 3], [3, 3, 3, 1, 3], [3, 3, 1, 3, 3], [3, 3, 3, 3, 1], [3, 1, 3, 3, 3]]","[1, 11, 7, 2, 9]",18,1,0,0.05,0.0473333333333333,0.00266666666666667,"[12, 6, 1, 3, 8, 19]",6,"random",5,5,34189,8,151,143,1293146560188207872,"attentional-mouselab",4,186187,0
"2","mouselab","True","[0, 21, 17, 18, 23, 3]","[[5, 4, 5, 10, 8], [6, 4, 4, 5, 6], [5, 2, 4, 7, 6], [4, 5, 2, 4, 6], [5, 6, 4, 5, 7]]","[[1, 3, 3, 1, 3], [3, 3, 3, 3, 3], [3, 3, 3, 3, 3], [3, 3, 1, 1, 3], [3, 1, 3, 1, 3]]","[2, 1, 7, 3, 17]",24,2,4,0.067,0.065,0.002,"[0, 21, 17, 18, 23, 3]",6,"random",5,5,9542,6,201,195,8758225404779841536,"attentional-mouselab",5,198643,0
"3","mouselab","False","[10, 11, 17, 18, 24, 14]","[[5, 3, 6, 6, 6], [3, 4, 5, 4, 4], [3, 8, 5, 6, 7], [6, 4, 7, 5, 2], [3, 2, 5, 6, 7]]","[[3, 3, 3, 3, 3], [3, 3, 3, 3, 3], [1, 1, 3, 3, 1], [3, 3, 1, 1, 3], [3, 3, 3, 3, 1]]","[6, 6, 5, 5, 8]",4,3,4,0.054,0.052,0.002,"[10, 11, 17, 18, 24, 14]",6,"greedy",5,5,4533,6,161,155,545466927864993664,"attentional-mouselab",7,207747,0
"4","mouselab","False","[16, 17, 18, 23, 24, 0]","[[2, 6, 5, 4, 6], [5, 6, 5, 5, 7], [3, 7, 5, 5, 3], [6, 5, 10, 7, 2], [4, 7, 4, 9, 6]]","[[1, 3, 3, 3, 3], [3, 3, 3, 3, 3], [3, 3, 3, 3, 3], [3, 1, 1, 1, 3], [3, 3, 3, 1, 1]]","[1, 2, 2, 23, 2]",34,4,3,0.068,0.066,0.002,"[16, 17, 18, 23, 24, 0]",6,"extreme",5,5,9024,6,203,197,726467300155741952,"attentional-mouselab",8,218891,0
"5","mouselab","False","[1, 6, 21, 9, 19]","[[2, 2, 6, 6, 5], [7, 9, 4, 3, 5], [6, 5, 3, 6, 6], [7, 7, 4, 3, 8], [7, 5, 5, 6, 2]]","[[1, 1, 3, 3, 3], [3, 1, 3, 3, 1], [3, 3, 3, 3, 3], [3, 3, 3, 3, 1], [3, 1, 3, 3, 3]]","[2, 14, 7, 6, 1]",18,5,4,0.057,0.0553333333333333,0.00166666666666667,"[1, 6, 21, 9, 19]",5,"extreme",5,5,11471,5,172,167,3888920501582865920,"attentional-mouselab",9,232267,0
"6","mouselab","False","[5, 20, 22, 17]","[[5, 3, 3, 5, 5], [4, 3, 9, 5, 7], [3, 6, 5, 4, 1], [3, 5, 9, 5, 2], [5, 6, 8, 2, 4]]","[[3, 3, 3, 3, 3], [1, 3, 3, 3, 3], [3, 3, 3, 3, 3], [3, 3, 1, 1, 3], [1, 3, 1, 3, 1]]","[2, 6, 4, 16, 2]",20,6,2,0.08,0.0786666666666667,0.00133333333333333,"[5, 20, 22, 17]",4,"random",5,5,5934,4,240,236,8178923196335853568,"attentional-mouselab",10,240435,0
"7","mouselab","False","[4, 9, 8, 13]","[[6, 5, 6, 3, 1], [10, 7, 5, 5, 4], [4, 5, 3, 8, 3], [4, 9, 6, 3, 4], [6, 5, 6, 5, 4]]","[[3, 3, 3, 3, 1], [1, 3, 3, 1, 1], [3, 3, 3, 1, 3], [3, 1, 3, 3, 3], [3, 3, 3, 3, 3]]","[5, 1, 3, 20, 1]",28,7,3,0.036,0.0346666666666667,0.00133333333333333,"[4, 9, 8, 13]",4,"extreme",5,5,5438,4,109,105,16825304082355234816,"attentional-mouselab",11,259147,0
"8","mouselab","False","[2, 7, 22]","[[5, 6, 7, 6, 5], [3, 4, 6, 5, 6], [4, 3, 5, 4, 6], [5, 1, 4, 2, 7], [3, 9, 7, 7, 5]]","[[3, 3, 1, 3, 3], [1, 3, 1, 3, 3], [3, 3, 3, 3, 3], [3, 3, 3, 3, 1], [3, 3, 1, 1, 3]]","[8, 2, 7, 9, 4]",12,8,2,0.056,0.055,0.001,"[2, 7, 22]",3,"greedy",5,5,3439,3,167,164,16564513325458694144,"attentional-mouselab",12,264483,0
"9","mouselab","False","[10, 1, 7, 17, 23, 14]","[[7, 5, 3, 7, 6], [4, 7, 6, 6, 7], [8, 5, 5, 4, 2], [6, 5, 10, 5, 4], [5, 6, 6, 5, 5]]","[[3, 1, 3, 3, 3], [3, 3, 1, 3, 3], [1, 3, 3, 3, 1], [3, 3, 1, 3, 3], [3, 3, 3, 1, 3]]","[1, 3, 21, 2, 3]",30,9,2,0.055,0.053,0.002,"[10, 1, 7, 17, 23, 14]",6,"extreme",5,5,6503,6,164,158,10746514697740761088,"attentional-mouselab",13,276987,0
"10","mouselab","False","[11, 1, 7, 22, 20, 3]","[[2, 6, 7, 7, 4], [7, 6, 7, 5, 4], [4, 1, 4, 6, 4], [3, 6, 4, 5, 3], [5, 4, 7, 5, 6]]","[[3, 1, 3, 1, 3], [3, 3, 1, 3, 3], [3, 1, 3, 3, 3], [3, 3, 3, 3, 3], [1, 3, 1, 3, 3]]","[6, 2, 12, 5, 5]",12,10,2,0.053,0.051,0.002,"[11, 1, 7, 22, 20, 3]",6,"greedy",5,5,6462,6,159,153,9511626556933502976,"attentional-mouselab",14,285403,0
"11","mouselab","False","[20, 10, 5]","[[6, 5, 5, 4, 5], [7, 7, 5, 3, 6], [6, 6, 3, 6, 0], [5, 7, 6, 7, 9], [9, 3, 6, 4, 5]]","[[3, 3, 3, 3, 3], [1, 3, 3, 3, 3], [1, 3, 3, 3, 1], [3, 3, 1, 3, 3], [1, 3, 1, 3, 3]]","[12, 6, 6, 5, 1]",12,11,0,0.061,0.06,0.001,"[20, 10, 5]",3,"greedy",5,5,3343,3,184,181,10087389533550698496,"attentional-mouselab",15,291203,0
"12","mouselab","False","[0, 15, 14, 4, 8, 16]","[[3, 5, 6, 3, 6], [0, 6, 4, 2, 5], [4, 6, 4, 6, 3], [4, 3, 3, 3, 7], [6, 2, 4, 4, 4]]","[[1, 3, 3, 3, 1], [3, 3, 3, 1, 3], [3, 3, 3, 3, 1], [1, 1, 3, 3, 3], [3, 3, 3, 3, 3]]","[2, 7, 6, 3, 12]",14,12,2,0.04,0.038,0.002,"[0, 15, 14, 4, 8, 16]",6,"random",5,5,6335,6,121,115,1241159490087320320,"attentional-mouselab",16,299331,0
"13","mouselab","False","[21, 16, 18, 8, 12, 4]","[[6, 2, 4, 2, 4], [6, 7, 7, 6, 6], [5, 4, 7, 6, 5], [4, 2, 6, 5, 5], [6, 3, 5, 5, 6]]","[[3, 3, 3, 3, 1], [3, 3, 3, 1, 3], [3, 3, 1, 3, 3], [3, 1, 3, 1, 3], [3, 1, 3, 3, 3]]","[4, 3, 8, 10, 5]",12,13,3,0.05,0.048,0.002,"[21, 16, 18, 8, 12, 4]",6,"random",5,5,4654,6,149,143,6795761916595837952,"attentional-mouselab",17,306828,0
"14","mouselab","False","[17, 2, 3, 18, 23, 19]","[[6, 3, 8, 6, 4], [5, 4, 6, 6, 4], [5, 8, 5, 4, 2], [5, 5, 8, 7, 5], [5, 2, 4, 7, 6]]","[[3, 3, 1, 1, 3], [3, 3, 3, 3, 3], [3, 3, 3, 3, 3], [3, 3, 1, 1, 1], [3, 3, 3, 1, 3]]","[6, 13, 5, 5, 1]",14,14,3,0.059,0.057,0.002,"[17, 2, 3, 18, 23, 19]",6,"greedy",5,5,7303,6,176,170,5983980976498723840,"attentional-mouselab",18,315699,0
"15","mouselab","False","[18, 13, 8, 3]","[[6, 5, 4, 9, 8], [8, 4, 6, 8, 8], [6, 5, 4, 7, 8], [4, 2, 4, 8, 6], [6, 4, 6, 5, 4]]","[[3, 3, 3, 1, 3], [3, 1, 3, 1, 3], [3, 3, 3, 1, 3], [3, 3, 3, 1, 3], [1, 3, 3, 3, 3]]","[7, 5, 11, 2, 5]",12,15,3,0.074,0.0726666666666667,0.00133333333333333,"[18, 13, 8, 3]",4,"greedy",5,5,2639,4,221,217,10014257310272610304,"attentional-mouselab",19,320843,0
"16","mouselab","False","[22, 17, 12, 19, 14, 13]","[[5, 6, 5, 6, 7], [6, 6, 4, 4, 4], [4, 6, 2, 5, 5], [5, 4, 4, 4, 7], [4, 5, 7, 5, 4]]","[[3, 3, 3, 3, 3], [3, 3, 3, 3, 3], [3, 3, 1, 1, 1], [3, 3, 1, 3, 1], [3, 3, 1, 3, 3]]","[3, 7, 10, 6, 4]",10,16,0,0.048,0.046,0.002,"[22, 17, 12, 19, 14, 13]",6,"extreme",5,5,10080,6,143,137,9775313833387243520,"attentional-mouselab",20,335467,0
"17","mouselab","False","[20, 5, 16, 2, 13, 19]","[[7, 4, 4, 6, 7], [7, 6, 6, 5, 9], [4, 4, 6, 6, 6], [4, 5, 3, 7, 6], [6, 8, 8, 8, 7]]","[[3, 3, 1, 3, 3], [1, 3, 3, 3, 3], [3, 3, 3, 1, 3], [3, 1, 3, 3, 1], [1, 3, 3, 3, 3]]","[10, 10, 3, 5, 2]",16,17,0,0.061,0.059,0.002,"[20, 5, 16, 2, 13, 19]",6,"random",5,5,4816,6,184,178,16796986918540187648,"attentional-mouselab",21,341979,0
"18","mouselab","False","[12, 7, 2, 14, 4]","[[7, 7, 5, 3, 5], [4, 5, 5, 9, 5], [2, 6, 3, 6, 7], [6, 8, 2, 7, 6], [4, 5, 5, 4, 7]]","[[3, 3, 1, 3, 1], [3, 3, 1, 3, 3], [3, 3, 1, 3, 1], [3, 3, 3, 1, 3], [3, 3, 3, 3, 3]]","[2, 6, 1, 11, 10]",18,18,4,0.061,0.0593333333333333,0.00166666666666667,"[12, 7, 2, 14, 4]",5,"random",5,5,3904,5,183,178,12634240091604267008,"attentional-mouselab",22,347635,0
"19","mouselab","False","[5, 15, 13, 3, 9, 2]","[[5, 3, 3, 3, 6], [6, 6, 4, 5, 6], [6, 5, 5, 3, 4], [6, 6, 6, 6, 4], [6, 5, 7, 7, 5]]","[[3, 3, 1, 1, 3], [1, 3, 3, 3, 1], [3, 3, 3, 1, 3], [1, 3, 3, 3, 3], [3, 3, 3, 3, 3]]","[13, 12, 1, 2, 2]",26,19,0,0.056,0.054,0.002,"[5, 15, 13, 3, 9, 2]",6,"extreme",5,5,9471,6,167,161,2474693085035724800,"attentional-mouselab",23,358939,0
"20","mouselab","False","[12, 7, 2]","[[8, 6, 8, 2, 6], [4, 7, 5, 6, 6], [6, 6, 9, 4, 5], [5, 4, 7, 8, 5], [7, 9, 7, 7, 6]]","[[3, 3, 1, 3, 3], [3, 3, 1, 3, 3], [3, 3, 1, 3, 3], [3, 3, 3, 1, 3], [3, 1, 3, 3, 1]]","[1, 8, 7, 1, 13]",20,20,2,0.07,0.069,0.001,"[12, 7, 2]",3,"extreme",5,5,3582,3,209,206,15590174176918874112,"attentional-mouselab",24,364131,0
"21","mouselab","False","[21, 11, 6, 7, 3, 14]","[[3, 5, 6, 4, 5], [6, 7, 9, 3, 8], [8, 7, 6, 4, 5], [3, 8, 6, 4, 5], [4, 2, 5, 4, 5]]","[[3, 3, 3, 1, 3], [3, 1, 1, 3, 3], [3, 1, 3, 3, 1], [3, 3, 3, 3, 3], [3, 1, 3, 3, 3]]","[2, 6, 12, 1, 9]",18,21,0,0.059,0.057,0.002,"[21, 11, 6, 7, 3, 14]",6,"greedy",5,5,6206,6,177,171,14920728493487267840,"attentional-mouselab",25,371938,0
"22","mouselab","False","[24, 19, 14, 10, 11, 17]","[[7, 5, 4, 7, 6], [3, 6, 5, 5, 5], [8, 1, 5, 5, 7], [3, 5, 2, 5, 6], [4, 6, 3, 7, 5]]","[[3, 3, 3, 3, 3], [3, 3, 3, 3, 3], [1, 1, 3, 3, 1], [3, 3, 1, 3, 1], [3, 3, 3, 3, 1]]","[7, 2, 4, 9, 8]",12,22,0,0.049,0.047,0.002,"[24, 19, 14, 10, 11, 17]",6,"extreme",5,5,5424,6,146,140,1135590645018953344,"attentional-mouselab",26,385019,0
"23","mouselab","False","[15, 5]","[[5, 4, 4, 6, 6], [9, 6, 4, 5, 3], [2, 2, 3, 4, 3], [8, 7, 9, 7, 6], [5, 6, 6, 7, 9]]","[[3, 3, 3, 3, 3], [1, 1, 3, 1, 3], [3, 3, 1, 3, 3], [1, 3, 3, 3, 3], [3, 3, 3, 3, 1]]","[6, 3, 14, 2, 5]",16,23,0,0.042,0.0413333333333333,0.000666666666666667,"[15, 5]",2,"greedy",5,5,3166,2,126,124,18326115816456552448,"attentional-mouselab",27,389851,0
"24","mouselab","False","[6, 1, 24, 9]","[[6, 6, 5, 4, 4], [4, 5, 6, 4, 9], [3, 1, 4, 8, 5], [4, 6, 9, 4, 4], [6, 4, 6, 4, 7]]","[[1, 1, 3, 3, 3], [3, 1, 3, 3, 1], [3, 3, 3, 3, 3], [3, 3, 1, 3, 3], [3, 3, 3, 3, 1]]","[10, 2, 6, 7, 5]",10,24,4,0.05,0.0486666666666667,0.00133333333333333,"[6, 1, 24, 9]",4,"greedy",5,5,4751,4,151,147,7803630592869301248,"attentional-mouselab",28,396011,0
"25","mouselab","False","[14, 4, 17, 5, 20, 6]","[[6, 5, 6, 6, 5], [0, 8, 6, 5, 6], [4, 6, 5, 5, 4], [5, 5, 8, 5, 4], [4, 5, 5, 7, 8]]","[[3, 3, 3, 3, 1], [1, 1, 3, 3, 3], [3, 3, 3, 3, 1], [3, 3, 1, 3, 3], [1, 3, 3, 3, 3]]","[10, 4, 5, 8, 3]",12,25,1,0.056,0.054,0.002,"[14, 4, 17, 5, 20, 6]",6,"extreme",5,5,12038,6,167,161,9369186435402594304,"attentional-mouselab",29,409796,0
"26","mouselab","False","[16, 6, 22, 12, 5, 20, 3, 3, 3]","[[5, 7, 3, 4, 5], [3, 7, 4, 1, 4], [7, 7, 6, 3, 3], [6, 5, 4, 5, 10], [4, 5, 3, 3, 5]]","[[3, 3, 3, 3, 3], [1, 1, 3, 3, 3], [3, 3, 1, 3, 3], [3, 1, 3, 3, 3], [1, 3, 1, 3, 3]]","[20, 1, 4, 2, 3]",28,26,2,0.035,0.032,0.003,"[16, 6, 22, 12, 5, 20, 3]",7,"random",5,5,10502,9,105,96,2055494657274344192,"attentional-mouselab",30,422339,0
"27","mouselab","False","[2, 22, 21, 5, 14, 13]","[[2, 3, 5, 6, 2], [3, 3, 6, 4, 6], [0, 3, 7, 2, 6], [4, 4, 4, 7, 5], [5, 3, 5, 6, 5]]","[[3, 3, 1, 3, 3], [1, 3, 3, 3, 3], [3, 3, 3, 1, 1], [3, 3, 3, 3, 3], [3, 1, 1, 3, 3]]","[3, 13, 11, 1, 2]",24,27,4,0.055,0.053,0.002,"[2, 22, 21, 5, 14, 13]",6,"random",5,5,7863,6,165,159,2902380802231426048,"attentional-mouselab",31,431579,0
"28","mouselab","False","[0, 20, 1, 17, 8, 24]","[[5, 7, 3, 6, 7], [6, 4, 7, 4, 4], [5, 5, 4, 5, 3], [8, 3, 3, 5, 6], [7, 4, 5, 2, 3]]","[[1, 1, 3, 3, 3], [3, 3, 3, 1, 3], [3, 3, 3, 3, 3], [3, 3, 1, 3, 3], [1, 3, 3, 3, 1]]","[1, 2, 21, 1, 5]",30,28,0,0.055,0.053,0.002,"[0, 20, 1, 17, 8, 24]",6,"random",5,5,8543,6,165,159,3405312285168718848,"attentional-mouselab",32,442547,0
"29","mouselab","False","[24, 19, 4]","[[5, 4, 3, 6, 4], [4, 7, 7, 6, 4], [6, 1, 4, 1, 6], [6, 6, 6, 7, 3], [4, 7, 6, 3, 7]]","[[3, 1, 3, 3, 1], [3, 3, 3, 3, 3], [3, 3, 3, 3, 3], [3, 3, 1, 1, 1], [3, 3, 3, 3, 1]]","[1, 5, 7, 13, 4]",16,29,4,0.044,0.043,0.001,"[24, 19, 4]",3,"random",5,5,3406,3,133,130,15257394374067597312,"attentional-mouselab",33,448851,0
"30","mouselab","False","[]","[[4, 6, 6, 2, 5], [9, 5, 6, 9, 5], [5, 7, 3, 6, 3], [5, 9, 6, 4, 1], [5, 5, 2, 6, 4]]","[[3, 3, 1, 3, 3], [3, 3, 3, 1, 3], [3, 1, 1, 3, 1], [3, 3, 3, 3, 3], [3, 1, 3, 3, 3]]","[1, 2, 6, 16, 5]",20,30,0,0.052,0.052,0,"[]",0,"random",5,5,2694,0,157,157,15848790106198056960,"attentional-mouselab",34,453331,0
"31","mouselab","False","[]","[[4, 6, 7, 3, 2], [5, 4, 3, 9, 3], [8, 7, 6, 6, 4], [5, 2, 5, 2, 5], [10, 4, 2, 9, 5]]","[[3, 1, 3, 3, 3], [3, 3, 3, 1, 1], [1, 3, 3, 3, 3], [3, 3, 1, 3, 3], [1, 3, 3, 3, 3]]","[3, 4, 3, 11, 9]",16,31,2,0.041,0.041,0,"[]",0,"greedy",5,5,2103,0,124,124,9375582561791078400,"attentional-mouselab",35,457139,0
"32","mouselab","False","[]","[[3, 1, 5, 7, 3], [6, 7, 3, 6, 2], [8, 3, 6, 4, 4], [6, 4, 4, 5, 4], [7, 4, 4, 4, 4]]","[[3, 1, 3, 3, 3], [3, 3, 3, 3, 1], [1, 3, 3, 1, 3], [3, 1, 3, 1, 3], [3, 3, 3, 3, 3]]","[5, 6, 5, 3, 11]",10,32,2,0.043,0.043,0,"[]",0,"extreme",5,5,2262,0,129,129,3252776471401283584,"attentional-mouselab",36,460955,0
"33","mouselab","True","[6, 20, 13, 3, 4, 9, 15, 10, 5, 0, 24, 17, 7, 16, 11, 21, 22, 23, 18, 12, 8, 2, 1, 14, 19, 20, 4, 4, 14, 19, 24, 23, 18, 8, 7, 12, 17, 22, 21, 16, 11, 2, 1, 0, 5, 10, 15, 14, 19, 24, 11, 16, 21, 22, 12, 2, 0, 10, 16, 11, 7, 8, 18, 23, 17, 15, 5, 1, 15, 7]","[[8, 4, 4, 5, 4], [5, 5, 6, 3, 5], [10, 3, 8, 4, 2], [5, 6, 7, 5, 5], [10, 5, 2, 6, 3]]","[[3, 3, 3, 1, 1], [3, 1, 3, 3, 1], [3, 3, 3, 1, 3], [3, 3, 3, 3, 3], [1, 3, 3, 3, 3]]","[1, 18, 4, 5, 2]",24,1,0,0.061,0.04,0.021,"[6, 20, 13, 3, 4, 9, 14, 19, 24, 11, 16, 21, 22, 12, 2, 0, 10, 7, 8, 18, 23, 17, 15, 5, 1]",25,"random",5,5,220041,63,183,120,7428667766645370880,"attentional-mouselab",4,564750,1
"34","mouselab","True","[0, 10, 20]","[[3, 3, 4, 4, 3], [4, 6, 5, 4, 4], [5, 3, 4, 6, 3], [5, 3, 4, 9, 3], [5, 7, 7, 5, 4]]","[[1, 3, 3, 3, 3], [3, 3, 3, 3, 1], [1, 3, 3, 3, 3], [3, 1, 1, 3, 3], [1, 3, 3, 3, 3]]","[6, 4, 7, 1, 12]",14,2,0,0.045,0.044,0.001,"[0, 10, 20]",3,"random",5,5,15086,3,134,131,13017799944591378432,"attentional-mouselab",5,584697,1
"35","mouselab","False","[1, 11, 21, 20, 10, 13, 3, 2, 17, 24, 4]","[[6, 5, 3, 4, 5], [8, 7, 5, 2, 7], [5, 7, 4, 8, 8], [5, 5, 3, 3, 5], [3, 3, 3, 7, 5]]","[[1, 3, 3, 3, 3], [3, 3, 1, 3, 1], [3, 3, 3, 3, 1], [3, 3, 3, 1, 3], [3, 3, 3, 1, 3]]","[8, 11, 7, 3, 1]",16,3,0,0.063,0.0593333333333333,0.00366666666666667,"[]",0,"greedy",5,5,16671,11,189,178,17865148498496233472,"attentional-mouselab",7,611956,1
"36","mouselab","False","[0, 5]","[[7, 4, 4, 6, 8], [7, 1, 8, 4, 6], [7, 6, 6, 4, 3], [6, 4, 7, 2, 7], [4, 6, 4, 8, 3]]","[[3, 1, 1, 3, 1], [3, 1, 3, 1, 3], [3, 3, 3, 3, 3], [3, 3, 3, 3, 3], [3, 3, 3, 1, 3]]","[3, 6, 9, 7, 5]",8,4,0,0.063,0.0623333333333333,0.000666666666666667,"[]",0,"extreme",5,5,12284,2,188,186,9401549732085469184,"attentional-mouselab",8,628696,1
"37","mouselab","False","[2, 17, 11]","[[7, 6, 6, 5, 6], [9, 7, 2, 5, 6], [5, 5, 5, 5, 6], [5, 4, 6, 2, 6], [4, 7, 4, 5, 3]]","[[3, 3, 3, 3, 3], [1, 3, 3, 1, 3], [3, 3, 1, 3, 3], [3, 3, 3, 1, 3], [1, 3, 3, 3, 1]]","[1, 3, 13, 7, 6]",16,5,2,0.048,0.047,0.001,"[]",0,"random",5,5,6760,3,143,140,17783538072275853312,"attentional-mouselab",9,637528,1
"38","mouselab","False","[4, 19]","[[7, 4, 2, 4, 3], [3, 4, 4, 6, 6], [5, 5, 3, 6, 3], [3, 5, 6, 3, 7], [3, 6, 3, 2, 5]]","[[1, 3, 1, 3, 3], [3, 3, 3, 3, 3], [3, 3, 3, 3, 1], [1, 1, 3, 3, 3], [3, 3, 3, 1, 3]]","[1, 6, 10, 4, 9]",14,6,4,0.047,0.0463333333333333,0.000666666666666667,"[]",0,"extreme",5,5,4983,2,142,140,1409868610920274432,"attentional-mouselab",10,644030,1
"39","mouselab","False","[1, 11]","[[7, 6, 5, 6, 5], [7, 4, 4, 7, 5], [6, 5, 6, 6, 7], [5, 5, 3, 4, 7], [5, 3, 3, 5, 4]]","[[1, 3, 3, 3, 3], [3, 3, 1, 1, 3], [3, 3, 3, 3, 1], [3, 3, 3, 3, 3], [3, 1, 1, 3, 3]]","[11, 6, 11, 1, 1]",20,7,1,0.051,0.0503333333333333,0.000666666666666667,"[]",0,"extreme",5,5,6805,2,153,151,18352713824288657408,"attentional-mouselab",11,652389,1
"40","mouselab","False","[5, 10, 15, 20]","[[2, 4, 2, 5, 3], [6, 8, 5, 6, 1], [5, 3, 5, 5, 6], [6, 7, 1, 4, 4], [5, 5, 3, 5, 5]]","[[1, 3, 3, 1, 1], [3, 1, 3, 3, 3], [3, 3, 3, 1, 3], [3, 1, 3, 3, 3], [3, 3, 3, 3, 3]]","[6, 5, 3, 3, 13]",14,8,0,0.047,0.0456666666666667,0.00133333333333333,"[]",0,"greedy",5,5,7030,4,140,136,15222990869482067968,"attentional-mouselab",12,661164,1
"41","mouselab","False","[6, 11, 21, 16]","[[7, 7, 5, 7, 7], [4, 6, 6, 6, 8], [8, 5, 6, 5, 4], [3, 8, 3, 1, 4], [4, 5, 7, 4, 5]]","[[3, 1, 3, 3, 3], [3, 3, 3, 3, 1], [3, 3, 1, 3, 3], [3, 1, 3, 3, 3], [3, 3, 3, 1, 1]]","[11, 2, 8, 5, 4]",14,9,1,0.063,0.0616666666666667,0.00133333333333333,"[16]",1,"greedy",5,5,30172,4,189,185,13646835255331831808,"attentional-mouselab",13,693250,1
"42","mouselab","False","[24, 19, 14, 9, 4]","[[5, 1, 4, 8, 0], [2, 6, 5, 5, 5], [7, 4, 5, 7, 6], [0, 4, 7, 6, 5], [5, 4, 4, 4, 3]]","[[1, 3, 1, 3, 3], [3, 3, 3, 3, 3], [3, 3, 3, 1, 3], [3, 3, 3, 3, 3], [1, 1, 3, 3, 1]]","[3, 4, 3, 10, 10]",16,10,4,0.039,0.0373333333333333,0.00166666666666667,"[24]",1,"random",5,5,7920,5,118,113,16329315507694612480,"attentional-mouselab",14,703116,1
"43","mouselab","False","[21, 11, 1]","[[5, 6, 2, 5, 4], [6, 5, 4, 5, 6], [6, 7, 5, 1, 7], [8, 3, 6, 5, 7], [2, 5, 5, 7, 8]]","[[1, 1, 3, 3, 1], [3, 3, 3, 1, 3], [3, 3, 1, 1, 3], [3, 3, 3, 3, 3], [3, 3, 3, 3, 3]]","[7, 9, 6, 3, 5]",8,11,1,0.054,0.053,0.001,"[1]",1,"random",5,5,5433,3,163,160,4173863896540396032,"attentional-mouselab",15,710541,1
"44","mouselab","False","[3, 13, 23]","[[7, 5, 10, 6, 6], [4, 4, 6, 6, 5], [5, 2, 4, 6, 6], [3, 7, 7, 10, 3], [4, 5, 6, 7, 5]]","[[3, 3, 1, 3, 3], [3, 3, 1, 3, 3], [3, 3, 3, 3, 3], [3, 1, 3, 1, 3], [3, 3, 3, 1, 1]]","[1, 10, 12, 3, 4]",20,12,3,0.065,0.064,0.001,"[23]",1,"greedy",5,5,7627,3,196,193,5213520223006531584,"attentional-mouselab",16,720205,1
"45","mouselab","False","[4, 14, 24]","[[5, 6, 5, 5, 4], [3, 3, 5, 2, 5], [2, 4, 4, 7, 3], [5, 5, 7, 7, 4], [6, 5, 5, 8, 6]]","[[1, 1, 3, 3, 1], [3, 3, 3, 3, 3], [3, 3, 3, 1, 3], [3, 3, 3, 1, 3], [3, 3, 3, 1, 3]]","[10, 5, 7, 6, 2]",10,13,4,0.041,0.04,0.001,"[4]",1,"greedy",5,5,5467,3,122,119,1161197681209234432,"attentional-mouselab",17,727810,1
"46","mouselab","False","[1, 11, 21]","[[2, 7, 9, 3, 6], [0, 3, 3, 3, 2], [5, 6, 6, 8, 4], [8, 5, 4, 6, 5], [7, 4, 6, 6, 7]]","[[1, 3, 1, 3, 3], [1, 3, 3, 3, 3], [3, 3, 3, 1, 1], [3, 3, 3, 3, 3], [1, 3, 3, 3, 3]]","[16, 7, 2, 2, 3]",22,14,1,0.056,0.055,0.001,"[]",0,"greedy",5,5,6997,3,167,164,7791683680795347968,"attentional-mouselab",18,736720,1
"47","mouselab","False","[0, 10, 20]","[[4, 3, 2, 2, 2], [8, 7, 5, 4, 6], [6, 6, 3, 3, 5], [7, 3, 7, 7, 4], [3, 5, 6, 3, 5]]","[[3, 1, 3, 1, 3], [3, 3, 3, 3, 3], [3, 1, 3, 3, 1], [3, 1, 1, 3, 3], [3, 3, 3, 3, 3]]","[16, 4, 3, 5, 2]",20,15,0,0.052,0.051,0.001,"[]",0,"random",5,5,4915,3,155,152,1283684762200988928,"attentional-mouselab",19,743133,1
"48","mouselab","False","[9, 19]","[[5, 4, 4, 7, 6], [7, 3, 5, 5, 2], [2, 8, 5, 4, 3], [5, 7, 6, 4, 7], [2, 7, 4, 6, 2]]","[[3, 3, 3, 3, 1], [1, 3, 3, 3, 3], [3, 1, 3, 3, 3], [3, 1, 3, 3, 3], [3, 1, 1, 3, 3]]","[1, 4, 7, 9, 9]",14,16,4,0.039,0.0383333333333333,0.000666666666666667,"[]",0,"greedy",5,5,6896,2,116,114,16025433319028944896,"attentional-mouselab",20,751402,1
"49","mouselab","False","[0, 10, 20]","[[4, 5, 7, 6, 4], [5, 3, 4, 5, 4], [8, 4, 4, 4, 4], [5, 7, 4, 3, 5], [2, 4, 4, 10, 5]]","[[3, 3, 1, 3, 3], [1, 1, 3, 3, 3], [3, 3, 3, 3, 3], [1, 1, 3, 3, 1], [3, 3, 3, 3, 3]]","[10, 2, 9, 6, 3]",14,17,0,0.053,0.052,0.001,"[]",0,"random",5,5,4781,3,158,155,7650918994044478464,"attentional-mouselab",21,757837,1
"50","mouselab","False","[3, 8, 13, 18, 23]","[[5, 7, 3, 6, 6], [6, 7, 8, 5, 7], [6, 5, 6, 4, 9], [5, 5, 4, 4, 6], [4, 4, 2, 5, 7]]","[[3, 3, 3, 3, 3], [1, 3, 1, 3, 3], [3, 1, 3, 3, 1], [3, 3, 1, 3, 3], [3, 3, 1, 3, 3]]","[6, 10, 4, 2, 8]",12,18,3,0.05,0.0483333333333333,0.00166666666666667,"[]",0,"extreme",5,5,19980,5,150,145,6254821992393915392,"attentional-mouselab",22,779426,1
"51","mouselab","False","[0, 10, 20]","[[3, 7, 7, 7, 4], [6, 4, 7, 5, 5], [4, 4, 4, 8, 5], [7, 4, 5, 7, 5], [5, 2, 4, 7, 7]]","[[3, 3, 3, 3, 3], [3, 3, 3, 3, 3], [3, 3, 1, 1, 3], [1, 3, 3, 1, 3], [3, 1, 3, 1, 3]]","[4, 3, 10, 12, 1]",20,19,0,0.053,0.052,0.001,"[]",0,"extreme",5,5,4701,3,159,156,13516710016286363648,"attentional-mouselab",23,786592,1
"52","mouselab","False","[1, 11, 21]","[[7, 7, 2, 4, 6], [6, 10, 5, 5, 5], [6, 7, 4, 5, 7], [2, 4, 3, 9, 4], [5, 6, 9, 4, 5]]","[[3, 3, 1, 1, 3], [3, 3, 1, 3, 3], [3, 1, 3, 3, 3], [3, 3, 3, 3, 1], [3, 1, 3, 3, 3]]","[3, 11, 3, 7, 6]",12,20,1,0.072,0.071,0.001,"[11, 21]",2,"random",5,5,5951,3,216,213,8172865599734073344,"attentional-mouselab",24,793961,1
"53","mouselab","False","[4, 14, 24]","[[4, 7, 6, 6, 4], [5, 7, 6, 6, 3], [6, 6, 5, 5, 5], [5, 6, 2, 6, 5], [8, 5, 2, 4, 5]]","[[1, 1, 1, 1, 3], [3, 3, 3, 3, 3], [3, 3, 3, 1, 3], [3, 3, 3, 3, 3], [3, 3, 3, 1, 3]]","[1, 8, 2, 2, 17]",26,21,4,0.044,0.043,0.001,"[]",0,"random",5,5,7087,3,133,130,1690725929774344704,"attentional-mouselab",25,802624,1
"54","mouselab","False","[0, 10, 20]","[[5, 2, 4, 4, 2], [5, 4, 6, 4, 3], [8, 5, 7, 4, 4], [5, 7, 6, 5, 6], [3, 3, 3, 4, 5]]","[[3, 1, 3, 3, 1], [3, 3, 1, 3, 3], [1, 3, 3, 1, 3], [3, 3, 3, 3, 3], [3, 3, 3, 1, 3]]","[5, 8, 6, 9, 2]",10,22,0,0.055,0.054,0.001,"[10]",1,"extreme",5,5,9866,3,164,161,975365758745043200,"attentional-mouselab",26,814268,1
"55","mouselab","False","[1, 11, 21]","[[6, 5, 6, 3, 5], [5, 4, 5, 4, 4], [2, 3, 4, 4, 4], [4, 4, 5, 6, 5], [7, 5, 5, 3, 4]]","[[1, 3, 3, 3, 3], [3, 3, 1, 3, 3], [1, 1, 3, 3, 1], [3, 3, 3, 3, 3], [1, 3, 3, 3, 3]]","[1, 1, 15, 3, 10]",26,23,1,0.039,0.038,0.001,"[11]",1,"extreme",5,5,5096,3,116,113,1497337980511365376,"attentional-mouselab",27,820838,1
"56","mouselab","False","[2, 12, 22]","[[4, 8, 3, 6, 3], [4, 3, 5, 6, 7], [5, 4, 5, 9, 5], [7, 6, 3, 4, 4], [6, 6, 3, 5, 4]]","[[3, 1, 1, 3, 1], [3, 3, 3, 3, 1], [3, 3, 3, 1, 3], [3, 3, 3, 3, 3], [3, 1, 3, 3, 3]]","[2, 6, 12, 2, 8]",16,24,2,0.042,0.041,0.001,"[2]",1,"extreme",5,5,4815,3,126,123,15569567674519328768,"attentional-mouselab",28,827205,1
"57","mouselab","False","[4, 14, 24]","[[4, 2, 7, 2, 8], [7, 7, 5, 5, 7], [6, 10, 6, 3, 2], [4, 6, 7, 5, 4], [3, 5, 5, 5, 7]]","[[3, 3, 1, 3, 3], [3, 3, 3, 3, 3], [3, 3, 1, 1, 3], [3, 3, 1, 3, 1], [3, 3, 3, 3, 1]]","[5, 9, 3, 4, 9]",12,25,4,0.063,0.062,0.001,"[24]",1,"random",5,5,4466,3,188,185,7392550744812923904,"attentional-mouselab",29,833258,1
"58","mouselab","False","[0, 10, 20]","[[5, 8, 5, 5, 5], [7, 5, 6, 5, 6], [5, 1, 6, 5, 7], [5, 7, 7, 4, 4], [6, 4, 5, 7, 5]]","[[3, 1, 3, 3, 1], [3, 3, 3, 3, 3], [1, 3, 1, 3, 1], [3, 3, 3, 3, 3], [3, 3, 3, 3, 1]]","[5, 3, 3, 7, 12]",14,26,0,0.056,0.055,0.001,"[10]",1,"random",5,5,8437,3,168,165,7960687921633041408,"attentional-mouselab",30,843991,1
"59","mouselab","False","[1, 6, 16, 21]","[[4, 7, 2, 5, 7], [6, 0, 5, 5, 3], [4, 7, 9, 3, 5], [4, 5, 6, 5, 3], [6, 8, 3, 5, 5]]","[[3, 3, 3, 1, 3], [3, 1, 3, 3, 3], [1, 1, 1, 3, 3], [3, 3, 3, 3, 1], [3, 3, 3, 3, 3]]","[5, 3, 3, 18, 1]",24,27,1,0.051,0.0496666666666667,0.00133333333333333,"[6]",1,"random",5,5,5130,4,154,150,1.4155017157822e+19,"attentional-mouselab",31,850999,1
"60","mouselab","False","[1, 6, 11, 16, 21]","[[5, 5, 9, 8, 6], [3, 4, 6, 5, 7], [5, 6, 5, 2, 5], [6, 6, 5, 5, 6], [6, 7, 7, 7, 6]]","[[3, 3, 1, 1, 3], [3, 3, 3, 3, 1], [3, 3, 3, 1, 1], [3, 3, 3, 3, 3], [3, 3, 3, 1, 3]]","[19, 6, 2, 2, 1]",26,28,1,0.05,0.0483333333333333,0.00166666666666667,"[]",0,"extreme",5,5,5714,5,150,145,5462695255447334912,"attentional-mouselab",32,858695,1
"61","mouselab","False","[1, 11, 21]","[[3, 7, 4, 7, 7], [6, 3, 7, 4, 5], [6, 4, 6, 2, 7], [6, 5, 7, 5, 6], [3, 5, 6, 3, 5]]","[[1, 3, 3, 3, 1], [3, 3, 1, 3, 1], [1, 3, 3, 3, 3], [3, 3, 1, 3, 3], [3, 3, 3, 3, 3]]","[8, 11, 4, 1, 6]",14,29,1,0.047,0.046,0.001,"[]",0,"greedy",5,5,5118,3,140,137,6781057675890861056,"attentional-mouselab",33,865276,1
"62","mouselab","False","[1, 11, 21]","[[5, 4, 5, 5, 2], [5, 2, 5, 8, 3], [2, 6, 4, 5, 6], [3, 3, 2, 4, 6], [3, 6, 5, 2, 4]]","[[1, 1, 3, 3, 1], [3, 3, 3, 1, 3], [3, 3, 3, 3, 3], [1, 3, 1, 3, 3], [3, 3, 3, 3, 3]]","[2, 3, 7, 13, 5]",16,30,1,0.042,0.041,0.001,"[1]",1,"greedy",5,5,8910,3,125,122,5876454405630864384,"attentional-mouselab",34,875581,1
"63","mouselab","False","[3, 8, 13, 18, 23]","[[6, 1, 4, 7, 6], [6, 3, 4, 6, 1], [7, 4, 2, 4, 1], [5, 5, 5, 3, 6], [5, 4, 2, 5, 4]]","[[3, 1, 3, 3, 3], [1, 3, 3, 3, 1], [3, 3, 1, 3, 1], [3, 3, 1, 3, 3], [3, 3, 3, 3, 3]]","[2, 13, 6, 5, 4]",14,31,3,0.05,0.0483333333333333,0.00166666666666667,"[]",0,"extreme",5,5,5084,5,151,146,8982384143863562240,"attentional-mouselab",35,882365,1
"64","mouselab","False","[4, 14, 24, 19, 9]","[[2, 2, 6, 4, 3], [6, 3, 2, 6, 4], [5, 6, 4, 5, 4], [3, 6, 5, 3, 6], [4, 4, 5, 7, 7]]","[[1, 1, 1, 3, 3], [3, 3, 3, 1, 3], [3, 1, 3, 3, 3], [3, 3, 3, 3, 3], [3, 3, 3, 1, 3]]","[5, 1, 20, 1, 3]",28,32,4,0.042,0.0403333333333333,0.00166666666666667,"[]",0,"greedy",5,5,7807,5,126,121,10733356422873888768,"attentional-mouselab",36,891928,1
"65","mouselab","True","[]","[[7, 5, 1, 4, 5], [6, 5, 6, 3, 3], [2, 4, 6, 3, 6], [5, 5, 5, 3, 7], [7, 7, 5, 6, 7]]","[[1, 3, 3, 1, 3], [3, 3, 3, 3, 3], [1, 1, 3, 3, 1], [3, 3, 1, 3, 3], [3, 3, 3, 3, 3]]","[5, 13, 7, 4, 1]",16,1,0,0.051,0.051,0,"[]",0,"random",5,5,8956,0,154,154,769443712575878400,"attentional-mouselab",4,415464,2
"66","mouselab","True","[]","[[6, 7, 4, 8, 8], [4, 5, 3, 6, 3], [10, 5, 6, 6, 3], [5, 6, 3, 5, 4], [6, 6, 3, 7, 6]]","[[1, 3, 3, 3, 3], [3, 1, 3, 3, 3], [3, 3, 3, 3, 1], [3, 3, 1, 3, 1], [3, 3, 3, 1, 3]]","[4, 1, 7, 4, 14]",18,2,3,0.066,0.066,0,"[]",0,"random",5,5,4063,0,198,198,5647238529824787456,"attentional-mouselab",5,431630,2
"67","mouselab","False","[]","[[7, 3, 5, 5, 8], [6, 1, 4, 8, 9], [2, 5, 6, 3, 6], [3, 3, 4, 6, 5], [3, 6, 7, 5, 5]]","[[3, 3, 3, 3, 1], [3, 3, 3, 3, 1], [3, 3, 3, 3, 1], [1, 1, 3, 3, 3], [3, 3, 1, 3, 3]]","[9, 2, 2, 15, 2]",24,3,4,0.062,0.062,0,"[]",0,"greedy",5,5,4839,0,187,187,12343390575741921280,"attentional-mouselab",7,446812,2
"68","mouselab","False","[]","[[7, 0, 5, 4, 6], [3, 5, 3, 4, 5], [5, 3, 5, 8, 5], [2, 7, 5, 4, 4], [6, 7, 5, 4, 7]]","[[1, 1, 3, 3, 3], [3, 3, 3, 1, 3], [3, 3, 3, 1, 3], [1, 3, 1, 3, 3], [3, 3, 3, 3, 3]]","[7, 5, 12, 2, 4]",14,4,3,0.056,0.056,0,"[]",0,"extreme",5,5,3025,0,168,168,12206110857944322048,"attentional-mouselab",8,451800,2
"69","mouselab","False","[]","[[3, 1, 5, 7, 3], [6, 7, 3, 6, 2], [8, 3, 6, 4, 4], [6, 4, 4, 5, 4], [7, 4, 4, 4, 4]]","[[3, 3, 3, 1, 3], [3, 3, 3, 3, 3], [1, 3, 3, 1, 3], [3, 1, 3, 1, 3], [1, 3, 3, 3, 3]]","[17, 1, 1, 2, 9]",28,5,1,0.024,0.024,0,"[]",0,"greedy",5,5,1489,0,71,71,3252776471401283584,"attentional-mouselab",9,457292,2
"70","mouselab","False","[]","[[4, 7, 5, 5, 2], [7, 3, 5, 5, 3], [9, 5, 2, 6, 5], [3, 4, 6, 7, 4], [4, 6, 4, 3, 5]]","[[3, 3, 1, 1, 3], [3, 1, 3, 3, 1], [3, 3, 3, 3, 3], [3, 3, 1, 3, 1], [3, 3, 3, 3, 3]]","[7, 9, 3, 2, 9]",14,6,0,0.053,0.053,0,"[]",0,"random",5,5,1405,0,160,160,6774739096051671040,"attentional-mouselab",10,462134,2
"71","mouselab","False","[]","[[4, 3, 5, 4, 9], [6, 4, 6, 8, 5], [4, 4, 5, 4, 6], [7, 5, 3, 4, 5], [6, 6, 9, 7, 5]]","[[3, 3, 3, 3, 1], [1, 3, 3, 1, 3], [3, 3, 3, 3, 3], [1, 3, 1, 3, 3], [3, 3, 1, 3, 3]]","[9, 1, 5, 2, 13]",20,7,4,0.064,0.064,0,"[]",0,"greedy",5,5,2209,0,191,191,13172667700269168640,"attentional-mouselab",11,472808,2
"72","mouselab","False","[]","[[4, 7, 1, 6, 5], [8, 4, 5, 6, 6], [7, 7, 6, 6, 6], [2, 8, 7, 4, 4], [7, 7, 7, 5, 6]]","[[3, 3, 3, 1, 1], [1, 3, 3, 3, 3], [3, 1, 3, 3, 3], [3, 3, 3, 3, 3], [3, 3, 1, 1, 3]]","[7, 3, 14, 3, 3]",18,8,2,0.049,0.049,0,"[]",0,"random",5,5,2421,0,148,148,16853308082521546752,"attentional-mouselab",12,478324,2
"73","mouselab","False","[]","[[2, 6, 4, 6, 6], [8, 7, 6, 6, 3], [5, 7, 4, 4, 5], [3, 6, 4, 2, 5], [8, 6, 8, 3, 8]]","[[3, 1, 3, 3, 3], [1, 1, 3, 3, 3], [3, 1, 3, 3, 3], [3, 3, 3, 3, 3], [3, 3, 1, 3, 1]]","[1, 5, 4, 15, 5]",18,9,1,0.063,0.063,0,"[]",0,"greedy",5,5,1708,0,189,189,1.600469616491e+19,"attentional-mouselab",13,482522,2
"74","mouselab","False","[]","[[7, 5, 2, 4, 9], [4, 5, 0, 3, 2], [6, 6, 5, 4, 8], [8, 7, 4, 5, 1], [5, 4, 4, 8, 5]]","[[1, 3, 1, 3, 3], [3, 1, 1, 3, 3], [3, 3, 3, 3, 1], [3, 1, 3, 3, 3], [3, 3, 3, 3, 3]]","[3, 5, 1, 18, 3]",24,10,2,0.032,0.032,0,"[]",0,"random",5,5,2272,0,95,95,9800681295030822912,"attentional-mouselab",14,489154,2
"75","mouselab","False","[]","[[1, 5, 7, 6, 2], [4, 7, 3, 5, 5], [4, 3, 6, 5, 4], [7, 3, 2, 6, 4], [5, 8, 4, 3, 4]]","[[3, 3, 3, 1, 3], [3, 3, 1, 3, 3], [3, 3, 1, 1, 3], [3, 3, 3, 3, 3], [1, 1, 3, 3, 3]]","[7, 4, 7, 10, 2]",12,11,1,0.043,0.043,0,"[]",0,"random",5,5,3450,0,130,130,1410715349178200576,"attentional-mouselab",15,494980,2
"76","mouselab","False","[]","[[3, 5, 9, 3, 8], [3, 4, 6, 7, 1], [4, 6, 10, 5, 8], [5, 7, 3, 2, 9], [4, 8, 4, 4, 6]]","[[3, 1, 1, 3, 3], [3, 3, 3, 3, 3], [3, 1, 1, 3, 3], [3, 3, 3, 3, 1], [3, 3, 3, 3, 1]]","[2, 3, 2, 8, 15]",22,12,4,0.066,0.066,0,"[]",0,"greedy",5,5,1770,0,197,197,10825873074059599872,"attentional-mouselab",16,498494,2
"77","mouselab","False","[]","[[6, 6, 5, 7, 6], [6, 4, 7, 6, 5], [5, 7, 9, 4, 5], [2, 5, 2, 4, 5], [7, 2, 3, 5, 6]]","[[3, 3, 3, 3, 3], [3, 3, 3, 3, 3], [3, 3, 1, 3, 1], [1, 3, 1, 3, 3], [3, 1, 1, 3, 3]]","[5, 8, 4, 11, 2]",14,13,2,0.048,0.048,0,"[]",0,"extreme",5,5,2576,0,145,145,16657518777254453248,"attentional-mouselab",17,504042,2
"78","mouselab","False","[]","[[7, 6, 4, 4, 5], [6, 5, 7, 5, 4], [3, 6, 3, 4, 4], [5, 4, 5, 8, 3], [9, 3, 3, 3, 5]]","[[3, 3, 3, 1, 3], [3, 1, 1, 3, 3], [3, 1, 1, 3, 3], [3, 3, 3, 3, 1], [3, 3, 3, 3, 3]]","[1, 1, 23, 2, 3]",34,14,2,0.033,0.033,0,"[]",0,"random",5,5,2185,0,99,99,13460611773279334400,"attentional-mouselab",18,507704,2
"79","mouselab","False","[]","[[4, 2, 3, 4, 7], [8, 6, 8, 6, 2], [5, 5, 5, 5, 4], [3, 2, 3, 5, 8], [5, 4, 3, 4, 7]]","[[3, 3, 3, 1, 3], [1, 3, 1, 3, 3], [3, 3, 3, 3, 1], [1, 3, 3, 3, 3], [1, 3, 3, 3, 3]]","[2, 5, 17, 4, 2]",22,15,0,0.052,0.052,0,"[]",0,"random",5,5,9229,0,155,155,17676281599841638400,"attentional-mouselab",19,519424,2
"80","mouselab","False","[]","[[3, 5, 5, 5, 4], [5, 2, 2, 6, 7], [4, 5, 6, 8, 6], [6, 7, 3, 5, 5], [6, 3, 4, 5, 4]]","[[1, 3, 1, 3, 3], [3, 3, 3, 3, 1], [3, 3, 3, 1, 3], [3, 3, 3, 3, 3], [3, 1, 3, 1, 3]]","[3, 2, 16, 1, 8]",24,16,3,0.067,0.067,0,"[]",0,"greedy",5,5,4941,0,200,200,5107709526397856768,"attentional-mouselab",20,526446,2
"81","mouselab","False","[]","[[6, 5, 2, 2, 4], [2, 3, 6, 8, 6], [9, 2, 5, 4, 6], [3, 5, 5, 6, 5], [4, 5, 6, 3, 5]]","[[3, 3, 3, 1, 3], [3, 3, 3, 1, 3], [1, 1, 3, 3, 3], [3, 3, 3, 3, 3], [3, 3, 1, 1, 3]]","[3, 2, 12, 9, 4]",18,17,3,0.045,0.045,0,"[]",0,"extreme",5,5,2217,0,136,136,1926428471495368704,"attentional-mouselab",21,530604,2
"82","mouselab","False","[]","[[6, 5, 4, 6, 8], [5, 6, 4, 7, 6], [7, 5, 4, 6, 5], [4, 5, 7, 6, 7], [3, 5, 6, 3, 2]]","[[3, 3, 3, 3, 1], [3, 3, 1, 1, 3], [3, 3, 3, 3, 3], [1, 3, 3, 3, 1], [3, 3, 3, 3, 1]]","[6, 3, 15, 4, 2]",18,18,1,0.051,0.051,0,"[]",0,"extreme",5,5,2411,0,153,153,16422580669048326144,"attentional-mouselab",22,534994,2
"83","mouselab","False","[]","[[7, 4, 6, 4, 5], [5, 4, 5, 5, 4], [4, 6, 8, 5, 5], [4, 5, 5, 1, 6], [1, 5, 4, 3, 4]]","[[3, 3, 1, 1, 3], [3, 3, 3, 3, 3], [3, 3, 1, 3, 3], [3, 1, 3, 3, 1], [1, 3, 3, 3, 3]]","[13, 4, 1, 3, 9]",20,19,2,0.052,0.052,0,"[]",0,"greedy",5,5,2660,0,157,157,11655632539392880640,"attentional-mouselab",23,539810,2
"84","mouselab","False","[]","[[4, 6, 4, 4, 7], [6, 4, 4, 7, 7], [8, 7, 6, 2, 3], [2, 6, 5, 7, 3], [4, 6, 3, 5, 5]]","[[3, 3, 1, 3, 3], [3, 3, 3, 3, 3], [3, 3, 3, 3, 1], [1, 3, 3, 3, 3], [1, 1, 1, 3, 3]]","[9, 3, 2, 12, 4]",18,20,2,0.044,0.044,0,"[]",0,"random",5,5,2351,0,132,132,16563363096600780800,"attentional-mouselab",24,545296,2
"85","mouselab","False","[]","[[6, 5, 4, 9, 8], [8, 4, 6, 8, 8], [6, 5, 4, 7, 8], [4, 2, 4, 8, 6], [6, 4, 6, 5, 4]]","[[3, 3, 3, 1, 3], [3, 1, 3, 1, 3], [3, 3, 3, 1, 3], [3, 3, 3, 1, 3], [1, 3, 3, 3, 3]]","[2, 8, 8, 11, 1]",18,21,3,0.077,0.077,0,"[]",0,"greedy",5,5,1355,0,231,231,10014257310272610304,"attentional-mouselab",25,549344,2
"86","mouselab","False","[]","[[4, 7, 4, 3, 5], [6, 4, 6, 4, 6], [4, 5, 6, 8, 5], [7, 4, 4, 9, 4], [3, 7, 6, 7, 4]]","[[3, 1, 3, 3, 3], [3, 3, 3, 1, 1], [3, 3, 3, 1, 3], [1, 3, 3, 1, 3], [3, 3, 3, 3, 3]]","[15, 1, 2, 8, 4]",22,22,3,0.055,0.055,0,"[]",0,"extreme",5,5,1605,0,165,165,8686540949198552064,"attentional-mouselab",26,557374,2
"87","mouselab","False","[]","[[3, 5, 3, 4, 4], [6, 4, 4, 5, 4], [1, 7, 6, 4, 8], [7, 2, 5, 5, 5], [4, 8, 3, 6, 3]]","[[3, 1, 3, 3, 3], [3, 3, 3, 1, 3], [1, 3, 3, 3, 1], [3, 1, 3, 3, 3], [3, 1, 3, 3, 3]]","[4, 6, 8, 11, 1]",14,23,1,0.043,0.043,0,"[]",0,"extreme",5,5,2007,0,130,130,14315833295799099392,"attentional-mouselab",27,563486,2
"88","mouselab","False","[]","[[7, 4, 6, 5, 3], [4, 1, 6, 5, 6], [6, 9, 5, 4, 3], [6, 7, 5, 6, 4], [7, 3, 5, 3, 9]]","[[3, 1, 3, 3, 3], [3, 1, 1, 3, 3], [3, 1, 3, 3, 3], [3, 3, 3, 3, 1], [3, 3, 3, 3, 1]]","[2, 4, 19, 4, 1]",26,24,1,0.071,0.071,0,"[]",0,"extreme",5,5,1575,0,214,214,12859201167650578432,"attentional-mouselab",28,567822,2
"89","mouselab","False","[]","[[6, 3, 5, 6, 4], [6, 6, 4, 2, 6], [5, 7, 5, 5, 5], [1, 5, 3, 3, 4], [4, 2, 6, 5, 6]]","[[1, 3, 3, 3, 3], [3, 1, 3, 3, 3], [1, 3, 3, 3, 3], [3, 3, 3, 3, 3], [3, 1, 1, 3, 1]]","[5, 4, 17, 2, 2]",22,25,0,0.05,0.05,0,"[]",0,"random",5,5,3041,0,149,149,12217434635755927552,"attentional-mouselab",29,573394,2
"90","mouselab","False","[]","[[4, 6, 5, 4, 5], [5, 5, 5, 7, 3], [4, 5, 6, 6, 4], [5, 4, 5, 3, 6], [7, 8, 7, 3, 5]]","[[3, 3, 3, 3, 3], [3, 3, 3, 3, 3], [3, 3, 3, 3, 3], [3, 3, 3, 1, 3], [1, 1, 1, 1, 1]]","[5, 2, 2, 3, 18]",24,26,3,0.036,0.036,0,"[]",0,"extreme",5,5,2023,0,109,109,13657365278358798336,"attentional-mouselab",30,578312,2
"91","mouselab","False","[]","[[4, 4, 3, 5, 3], [7, 4, 5, 3, 4], [6, 7, 6, 6, 7], [4, 7, 3, 1, 5], [2, 1, 4, 4, 5]]","[[3, 3, 3, 3, 1], [3, 3, 3, 3, 1], [3, 3, 3, 3, 3], [3, 3, 1, 1, 3], [1, 1, 3, 3, 3]]","[3, 10, 5, 5, 7]",10,27,4,0.048,0.048,0,"[]",0,"extreme",5,5,2365,0,144,144,10319625331880933376,"attentional-mouselab",31,583246,2
"92","mouselab","False","[]","[[6, 4, 3, 6, 6], [6, 4, 5, 5, 4], [6, 1, 5, 3, 6], [3, 6, 8, 6, 5], [4, 5, 6, 5, 3]]","[[1, 3, 3, 3, 3], [1, 1, 3, 3, 3], [1, 3, 3, 3, 3], [3, 3, 1, 3, 3], [3, 3, 1, 3, 3]]","[2, 6, 17, 3, 2]",22,28,2,0.052,0.052,0,"[]",0,"greedy",5,5,8679,0,157,157,13404757924130588672,"attentional-mouselab",32,595844,2
"93","mouselab","False","[]","[[5, 3, 7, 6, 4], [6, 3, 7, 5, 5], [6, 4, 6, 6, 4], [4, 5, 4, 6, 3], [7, 3, 8, 5, 4]]","[[1, 3, 1, 1, 3], [3, 3, 1, 3, 3], [3, 3, 3, 3, 3], [3, 3, 3, 3, 3], [3, 1, 1, 3, 3]]","[7, 2, 5, 13, 3]",16,29,2,0.056,0.056,0,"[]",0,"greedy",5,5,1947,0,169,169,3107623256668416000,"attentional-mouselab",33,599840,2
"94","mouselab","False","[]","[[2, 7, 8, 7, 5], [4, 6, 5, 3, 2], [6, 5, 5, 7, 6], [8, 7, 6, 9, 3], [5, 6, 4, 6, 1]]","[[3, 3, 3, 3, 3], [3, 1, 3, 3, 1], [3, 1, 1, 3, 3], [3, 3, 3, 1, 3], [3, 3, 3, 3, 1]]","[1, 3, 16, 4, 6]",20,30,1,0.056,0.056,0,"[]",0,"extreme",5,5,3575,0,169,169,13021015395676719104,"attentional-mouselab",34,606480,2
"95","mouselab","False","[]","[[4, 4, 6, 8, 3], [6, 4, 7, 6, 8], [7, 5, 6, 5, 8], [1, 5, 6, 6, 6], [5, 4, 8, 6, 4]]","[[1, 3, 3, 3, 3], [3, 3, 3, 3, 3], [3, 3, 3, 3, 1], [3, 3, 1, 1, 3], [3, 3, 3, 1, 1]]","[11, 5, 8, 2, 4]",14,31,4,0.055,0.055,0,"[]",0,"random",5,5,1735,0,165,165,1396677387408507904,"attentional-mouselab",35,610436,2
"96","mouselab","False","[]","[[4, 5, 7, 6, 5], [7, 8, 4, 4, 7], [5, 4, 6, 6, 4], [3, 6, 6, 7, 6], [9, 4, 3, 5, 5]]","[[1, 3, 3, 3, 3], [1, 3, 3, 3, 3], [3, 3, 1, 3, 1], [3, 3, 3, 3, 1], [3, 3, 1, 3, 3]]","[6, 1, 11, 11, 1]",20,32,0,0.043,0.043,0,"[]",0,"random",5,5,2055,0,128,128,2666604397435845632,"attentional-mouselab",36,614438,2
"97","mouselab","True","[3, 8, 13, 18, 23, 3, 23, 18, 4, 9, 14, 24, 19, 12, 16, 21, 2, 10, 15, 20, 5, 0, 23, 18, 13, 13, 8, 8, 3]","[[7, 5, 3, 7, 6], [4, 7, 6, 6, 7], [8, 5, 5, 4, 2], [6, 5, 10, 5, 4], [5, 6, 6, 5, 5]]","[[3, 1, 3, 3, 3], [3, 1, 1, 3, 3], [1, 3, 3, 3, 3], [3, 3, 3, 3, 1], [3, 3, 3, 1, 3]]","[11, 6, 2, 3, 8]",14,1,3,0.059,0.05,0.009,"[23, 19, 10, 18, 13, 8, 3]",7,"random",5,5,79080,27,176,149,10746514697740761088,"attentional-mouselab",4,450715,3
"98","mouselab","True","[]","[[4, 7, 2, 5, 7], [6, 0, 5, 5, 3], [4, 7, 9, 3, 5], [4, 5, 6, 5, 3], [6, 8, 3, 5, 5]]","[[3, 3, 3, 1, 3], [3, 1, 3, 3, 3], [1, 1, 1, 3, 3], [3, 3, 3, 3, 1], [3, 3, 3, 3, 3]]","[2, 3, 10, 5, 10]",16,2,2,0.056,0.056,0,"[]",0,"random",5,5,4329,0,169,169,1.4155017157822e+19,"attentional-mouselab",5,461024,3
"99","mouselab","False","[]","[[5, 3, 6, 5, 7], [7, 7, 5, 7, 8], [7, 4, 6, 4, 4], [3, 7, 6, 6, 2], [4, 4, 6, 10, 8]]","[[3, 3, 3, 3, 1], [1, 3, 3, 1, 3], [3, 3, 3, 3, 3], [1, 3, 1, 1, 3], [3, 3, 3, 3, 3]]","[7, 16, 2, 1, 4]",22,3,1,0.055,0.055,0,"[]",0,"random",5,5,3849,0,164,164,10512214161256278016,"attentional-mouselab",7,479282,3
"100","mouselab","False","[]","[[8, 8, 4, 3, 3], [4, 3, 7, 7, 8], [6, 6, 6, 8, 4], [7, 5, 8, 3, 4], [5, 5, 7, 5, 3]]","[[1, 3, 3, 3, 3], [1, 3, 3, 3, 3], [3, 3, 3, 1, 1], [3, 3, 3, 3, 1], [3, 3, 3, 3, 1]]","[1, 3, 3, 22, 1]",32,4,4,0.043,0.043,0,"[]",0,"random",5,5,2709,0,130,130,16503593299788910592,"attentional-mouselab",8,490716,3
"101","mouselab","False","[]","[[6, 1, 4, 7, 6], [6, 3, 4, 6, 1], [7, 4, 2, 4, 1], [5, 5, 5, 3, 6], [5, 4, 2, 5, 4]]","[[3, 1, 3, 3, 3], [1, 3, 3, 3, 1], [3, 3, 1, 3, 1], [3, 3, 1, 3, 3], [3, 3, 3, 3, 3]]","[9, 3, 6, 11, 1]",16,5,0,0.058,0.058,0,"[]",0,"extreme",5,5,2387,0,174,174,8982384143863562240,"attentional-mouselab",9,501133,3
"102","mouselab","False","[]","[[4, 4, 5, 5, 6], [5, 7, 3, 6, 5], [6, 5, 9, 5, 5], [1, 5, 6, 5, 2], [3, 4, 5, 7, 4]]","[[1, 3, 3, 3, 1], [3, 3, 3, 1, 3], [3, 3, 1, 3, 3], [1, 3, 3, 3, 1], [3, 3, 3, 3, 3]]","[5, 11, 5, 3, 6]",10,6,2,0.05,0.05,0,"[]",0,"extreme",5,5,1115,0,151,151,17957869619681148928,"attentional-mouselab",10,510816,3
"103","mouselab","False","[]","[[4, 3, 7, 5, 4], [6, 7, 6, 5, 7], [3, 7, 5, 7, 2], [3, 5, 5, 5, 9], [4, 5, 6, 4, 5]]","[[3, 3, 1, 1, 3], [3, 3, 3, 3, 3], [3, 1, 3, 3, 3], [3, 3, 3, 3, 1], [3, 1, 1, 3, 3]]","[3, 3, 18, 1, 5]",24,7,1,0.062,0.062,0,"[]",0,"greedy",5,5,2465,0,186,186,8380608825066262528,"attentional-mouselab",11,515451,3
"104","mouselab","False","[]","[[8, 5, 4, 5, 8], [7, 7, 4, 4, 6], [5, 8, 4, 8, 3], [4, 6, 6, 4, 8], [4, 6, 3, 7, 7]]","[[3, 3, 3, 3, 1], [3, 1, 3, 3, 3], [3, 1, 3, 3, 3], [3, 3, 3, 3, 1], [1, 1, 3, 3, 3]]","[5, 8, 3, 5, 9]",10,8,3,0.055,0.055,0,"[]",0,"greedy",5,5,2325,0,164,164,17361188736289632256,"attentional-mouselab",12,520629,3
"105","mouselab","False","[0, 15, 5, 10, 15, 15, 20, 20, 20, 2, 7, 7, 7, 12, 12, 12, 17, 17, 17, 22, 22, 22, 1, 1, 1, 6, 6, 6, 11, 11, 16, 16, 16, 21, 21, 21, 3, 3, 3, 8, 8, 13, 13, 8, 13, 18, 18, 18, 23, 23, 23, 4, 4, 4, 9, 9, 9, 14, 14, 14, 19, 19, 19, 24]","[[7, 6, 6, 5, 6], [7, 5, 5, 6, 5], [6, 6, 5, 4, 4], [4, 3, 6, 5, 5], [2, 5, 2, 6, 5]]","[[1, 3, 1, 3, 3], [1, 3, 3, 3, 3], [1, 1, 3, 3, 3], [3, 3, 3, 3, 3], [3, 3, 3, 3, 1]]","[16, 3, 2, 3, 6]",20,9,0,0.056,0.035,0.021,"[0, 5, 10, 15, 20, 2, 7, 12, 17, 22, 1, 6, 11, 16, 21, 3, 8, 13, 18, 23, 4, 9, 14, 19, 24]",25,"greedy",5,5,79106,63,169,106,2446345523251941376,"attentional-mouselab",13,603350,3
"106","mouselab","False","[]","[[7, 3, 3, 5, 7], [8, 6, 8, 5, 7], [7, 5, 2, 3, 7], [4, 3, 6, 5, 3], [4, 6, 4, 5, 7]]","[[3, 3, 3, 3, 1], [1, 3, 1, 3, 3], [3, 3, 1, 3, 3], [3, 3, 3, 3, 3], [1, 3, 3, 3, 1]]","[1, 4, 6, 11, 8]",14,10,1,0.046,0.046,0,"[]",0,"extreme",5,5,3049,0,138,138,11142934785048100864,"attentional-mouselab",14,616466,3
"107","mouselab","False","[]","[[6, 7, 7, 6, 5], [6, 4, 6, 6, 5], [8, 5, 7, 2, 6], [5, 5, 8, 10, 8], [5, 4, 4, 6, 6]]","[[3, 3, 1, 3, 3], [3, 3, 3, 3, 1], [1, 3, 3, 3, 1], [1, 3, 3, 1, 3], [3, 3, 3, 3, 3]]","[10, 6, 2, 2, 10]",16,11,4,0.056,0.056,0,"[]",0,"greedy",5,5,1796,0,168,168,4276887573308077568,"attentional-mouselab",15,633143,3
"108","mouselab","False","[]","[[6, 5, 3, 3, 3], [3, 6, 4, 6, 3], [2, 7, 4, 4, 5], [5, 4, 3, 5, 6], [10, 4, 4, 7, 4]]","[[3, 3, 3, 3, 1], [1, 3, 3, 3, 3], [3, 1, 3, 3, 3], [1, 3, 3, 3, 3], [1, 3, 3, 3, 1]]","[8, 3, 1, 7, 11]",16,12,3,0.053,0.053,0,"[]",0,"greedy",5,5,4841,0,158,158,8954224898841163776,"attentional-mouselab",16,644805,3
"109","mouselab","False","[]","[[5, 5, 5, 4, 6], [5, 5, 3, 7, 6], [5, 3, 4, 5, 5], [3, 7, 6, 3, 7], [5, 3, 1, 6, 4]]","[[3, 3, 3, 3, 3], [3, 3, 3, 3, 3], [3, 3, 1, 3, 3], [1, 1, 3, 3, 3], [3, 1, 1, 3, 1]]","[9, 1, 6, 11, 3]",16,13,2,0.047,0.047,0,"[]",0,"extreme",5,5,2153,0,141,141,5756366881871772672,"attentional-mouselab",17,648163,3
"110","mouselab","False","[]","[[4, 4, 4, 5, 5], [5, 9, 6, 4, 5], [5, 10, 5, 5, 4], [4, 4, 3, 3, 2], [4, 7, 7, 2, 4]]","[[3, 3, 3, 3, 3], [3, 1, 1, 3, 3], [3, 1, 3, 3, 3], [3, 3, 3, 3, 1], [1, 3, 3, 1, 3]]","[9, 5, 7, 8, 1]",12,14,0,0.044,0.044,0,"[]",0,"extreme",5,5,1207,0,132,132,1823415181859538944,"attentional-mouselab",18,651941,3
"111","mouselab","False","[]","[[2, 5, 8, 4, 6], [5, 3, 4, 8, 3], [4, 6, 4, 1, 3], [3, 6, 8, 6, 6], [3, 5, 7, 4, 5]]","[[1, 3, 3, 3, 1], [3, 3, 3, 3, 3], [1, 1, 3, 3, 3], [3, 3, 3, 3, 3], [3, 1, 1, 3, 3]]","[4, 13, 9, 1, 3]",20,15,4,0.037,0.037,0,"[]",0,"random",5,5,1775,0,111,111,6685893525115922432,"attentional-mouselab",19,655037,3
"112","mouselab","False","[]","[[5, 8, 6, 4, 3], [4, 4, 8, 4, 5], [10, 5, 7, 5, 3], [3, 5, 7, 2, 4], [8, 4, 4, 5, 7]]","[[3, 1, 1, 3, 3], [3, 3, 1, 3, 3], [3, 3, 3, 3, 1], [3, 3, 1, 3, 3], [1, 3, 3, 3, 3]]","[2, 4, 16, 7, 1]",22,16,4,0.036,0.036,0,"[]",0,"greedy",5,5,1923,0,109,109,10725774416708450304,"attentional-mouselab",20,658375,3
"113","mouselab","False","[]","[[4, 5, 6, 4, 3], [4, 5, 6, 6, 6], [4, 4, 5, 5, 8], [7, 8, 5, 6, 4], [9, 4, 4, 5, 5]]","[[3, 3, 3, 3, 3], [3, 3, 1, 1, 3], [3, 1, 3, 3, 3], [3, 3, 3, 3, 1], [3, 3, 3, 1, 1]]","[11, 3, 7, 6, 3]",12,17,1,0.053,0.053,0,"[]",0,"random",5,5,1115,0,158,158,6371555128187283456,"attentional-mouselab",21,660907,3
"114","mouselab","False","[]","[[5, 7, 4, 6, 4], [6, 4, 6, 2, 2], [4, 3, 4, 4, 4], [5, 7, 3, 7, 1], [6, 2, 6, 3, 6]]","[[3, 3, 3, 3, 3], [3, 3, 1, 1, 3], [3, 3, 3, 3, 3], [3, 3, 3, 1, 1], [3, 1, 3, 1, 3]]","[6, 4, 13, 2, 5]",14,18,2,0.045,0.045,0,"[]",0,"extreme",5,5,1813,0,136,136,696008842448207744,"attentional-mouselab",22,663751,3
"115","mouselab","False","[]","[[4, 6, 5, 4, 5], [5, 5, 5, 7, 3], [4, 5, 6, 6, 4], [5, 4, 5, 3, 6], [7, 8, 7, 3, 5]]","[[3, 3, 3, 3, 3], [3, 3, 3, 3, 3], [3, 3, 3, 3, 3], [3, 3, 3, 1, 3], [1, 1, 1, 1, 1]]","[9, 6, 9, 5, 1]",12,19,3,0.05,0.05,0,"[]",0,"extreme",5,5,831,0,150,150,13657365278358798336,"attentional-mouselab",23,666045,3
"116","mouselab","False","[]","[[3, 4, 6, 6, 5], [7, 4, 6, 4, 1], [6, 5, 7, 2, 7], [7, 7, 5, 4, 6], [3, 3, 7, 7, 3]]","[[3, 3, 1, 3, 3], [1, 3, 3, 3, 3], [3, 3, 1, 3, 1], [3, 3, 3, 1, 3], [3, 3, 1, 3, 3]]","[1, 5, 5, 10, 9]",14,20,1,0.049,0.049,0,"[]",0,"greedy",5,5,2041,0,146,146,4527510169137553920,"attentional-mouselab",24,670445,3
"117","mouselab","False","[]","[[5, 4, 5, 4, 6], [5, 5, 2, 3, 3], [4, 5, 4, 6, 4], [5, 5, 1, 7, 7], [6, 5, 6, 6, 4]]","[[3, 3, 3, 3, 1], [3, 3, 1, 1, 3], [3, 3, 3, 3, 3], [3, 3, 1, 3, 3], [3, 1, 3, 1, 3]]","[3, 6, 4, 9, 8]",10,21,2,0.033,0.033,0,"[]",0,"extreme",5,5,11743,0,100,100,148097623101081568,"attentional-mouselab",25,683219,3
"118","mouselab","False","[]","[[7, 2, 4, 4, 4], [6, 5, 8, 5, 5], [6, 6, 3, 5, 3], [7, 4, 1, 3, 6], [7, 5, 6, 6, 3]]","[[3, 1, 3, 3, 3], [3, 1, 1, 3, 3], [3, 3, 3, 3, 3], [1, 3, 1, 1, 3], [3, 3, 3, 3, 3]]","[6, 14, 5, 2, 3]",16,22,4,0.043,0.043,0,"[]",0,"extreme",5,5,2183,0,130,130,6744968927774664704,"attentional-mouselab",26,690259,3
"119","mouselab","False","[]","[[3, 6, 7, 3, 4], [7, 4, 6, 6, 6], [7, 5, 5, 5, 4], [7, 4, 4, 6, 8], [6, 5, 3, 8, 4]]","[[3, 3, 3, 3, 3], [1, 3, 3, 3, 1], [1, 3, 3, 1, 3], [1, 3, 3, 3, 3], [3, 3, 1, 3, 3]]","[2, 7, 9, 6, 6]",8,23,0,0.065,0.065,0,"[]",0,"greedy",5,5,2303,0,196,196,12073779686829373440,"attentional-mouselab",27,694959,3
"120","mouselab","False","[]","[[5, 7, 4, 4, 6], [7, 6, 6, 7, 5], [8, 6, 5, 6, 5], [3, 5, 3, 3, 7], [2, 4, 6, 3, 4]]","[[3, 3, 3, 3, 3], [3, 3, 1, 3, 1], [3, 3, 1, 1, 3], [3, 3, 3, 3, 1], [3, 3, 3, 3, 1]]","[1, 7, 3, 8, 11]",16,24,4,0.052,0.052,0,"[]",0,"random",5,5,1963,0,156,156,1654749258641092608,"attentional-mouselab",28,701089,3
"121","mouselab","False","[]","[[4, 5, 5, 2, 4], [6, 5, 4, 5, 5], [1, 5, 3, 6, 3], [4, 5, 6, 3, 5], [7, 5, 4, 8, 6]]","[[3, 3, 3, 3, 3], [3, 3, 1, 3, 3], [3, 3, 1, 1, 3], [1, 1, 1, 3, 3], [3, 3, 3, 3, 3]]","[2, 7, 5, 5, 11]",12,25,2,0.042,0.042,0,"[]",0,"random",5,5,1681,0,127,127,14941379810578929664,"attentional-mouselab",29,704169,3
"122","mouselab","False","[]","[[4, 6, 6, 5, 7], [6, 4, 5, 3, 4], [6, 6, 4, 4, 5], [4, 4, 6, 2, 3], [4, 5, 4, 6, 5]]","[[3, 3, 3, 1, 1], [3, 3, 1, 3, 3], [3, 1, 3, 3, 3], [3, 3, 3, 1, 1], [3, 3, 3, 3, 3]]","[3, 2, 12, 12, 1]",24,26,3,0.033,0.033,0,"[]",0,"greedy",5,5,2325,0,99,99,13824861082421475328,"attentional-mouselab",30,708373,3
"123","mouselab","False","[]","[[6, 4, 5, 4, 6], [2, 4, 5, 4, 7], [5, 6, 5, 5, 5], [3, 3, 3, 3, 3], [4, 5, 4, 6, 5]]","[[3, 3, 3, 3, 3], [1, 3, 3, 3, 3], [1, 3, 3, 3, 3], [1, 3, 1, 3, 1], [1, 3, 3, 3, 3]]","[1, 20, 3, 2, 4]",28,27,0,0.028,0.028,0,"[]",0,"extreme",5,5,1799,0,83,83,11112770092250062848,"attentional-mouselab",31,714513,3
"124","mouselab","False","[]","[[3, 3, 7, 5, 6], [6, 4, 3, 3, 5], [5, 5, 10, 5, 6], [5, 6, 5, 6, 4], [5, 0, 4, 5, 6]]","[[1, 3, 1, 3, 3], [3, 3, 3, 1, 3], [3, 3, 3, 3, 3], [3, 1, 1, 3, 3], [3, 3, 1, 3, 3]]","[7, 3, 17, 1, 2]",24,28,2,0.08,0.08,0,"[]",0,"random",5,5,2505,0,241,241,4147608601409529856,"attentional-mouselab",32,721357,3
"125","mouselab","False","[]","[[5, 3, 4, 5, 6], [6, 3, 6, 4, 4], [4, 5, 2, 8, 1], [3, 4, 6, 6, 4], [7, 7, 5, 4, 6]]","[[3, 3, 1, 3, 3], [3, 3, 3, 1, 1], [3, 3, 3, 3, 1], [3, 3, 1, 3, 1], [3, 3, 3, 3, 3]]","[10, 5, 5, 5, 5]",8,29,4,0.045,0.045,0,"[]",0,"random",5,5,1853,0,135,135,11867959674306154496,"attentional-mouselab",33,724525,3
"126","mouselab","False","[]","[[6, 7, 6, 3, 1], [2, 3, 7, 6, 5], [5, 2, 5, 4, 5], [5, 6, 7, 4, 5], [6, 7, 5, 4, 4]]","[[3, 3, 3, 3, 3], [3, 3, 3, 3, 3], [3, 3, 3, 3, 1], [1, 3, 1, 3, 3], [1, 3, 1, 3, 1]]","[6, 3, 11, 9, 1]",16,30,4,0.042,0.042,0,"[]",0,"random",5,5,6411,0,125,125,5258021944149556224,"attentional-mouselab",34,732273,3
"127","mouselab","False","[]","[[2, 4, 2, 5, 3], [6, 8, 5, 6, 1], [5, 3, 5, 5, 6], [6, 7, 1, 4, 4], [5, 5, 3, 5, 5]]","[[3, 3, 3, 1, 1], [3, 3, 3, 3, 3], [3, 1, 3, 1, 1], [3, 1, 3, 3, 3], [3, 3, 3, 3, 3]]","[9, 2, 8, 5, 6]",10,31,1,0.047,0.047,0,"[]",0,"random",5,5,2749,0,141,141,15222990869482067968,"attentional-mouselab",35,736365,3
"128","mouselab","False","[]","[[3, 3, 3, 5, 5], [9, 7, 6, 5, 1], [3, 6, 7, 2, 4], [7, 3, 2, 5, 6], [6, 5, 4, 5, 5]]","[[3, 3, 1, 3, 1], [1, 3, 3, 3, 3], [1, 3, 1, 3, 3], [1, 3, 3, 3, 3], [3, 3, 3, 3, 3]]","[2, 13, 3, 8, 4]",18,32,0,0.071,0.071,0,"[]",0,"greedy",5,5,3002,0,212,212,7630023391710269440,"attentional-mouselab",36,740625,3
"129","mouselab","True","[]","[[6, 4, 8, 6, 5], [6, 2, 4, 6, 5], [4, 3, 3, 6, 5], [5, 3, 4, 5, 5], [3, 7, 3, 4, 5]]","[[3, 3, 3, 3, 3], [3, 3, 3, 3, 3], [3, 3, 3, 3, 1], [3, 3, 1, 1, 1], [1, 3, 3, 1, 3]]","[1, 2, 2, 22, 3]",32,1,1,0.034,0.034,0,"[]",0,"random",5,5,7082,0,101,101,15019403986074206208,"attentional-mouselab",4,375972,4
"130","mouselab","True","[]","[[6, 7, 5, 3, 8], [5, 5, 5, 4, 3], [4, 5, 5, 5, 6], [4, 3, 4, 6, 4], [9, 7, 4, 3, 9]]","[[3, 1, 3, 3, 3], [3, 3, 3, 3, 3], [3, 3, 1, 1, 3], [3, 3, 3, 3, 1], [1, 3, 3, 3, 1]]","[8, 9, 6, 5, 2]",10,2,3,0.042,0.042,0,"[]",0,"random",5,5,5064,0,126,126,7969660964836834304,"attentional-mouselab",5,384195,4
"131","mouselab","False","[]","[[3, 3, 4, 3, 6], [4, 5, 4, 7, 8], [8, 7, 3, 8, 5], [4, 4, 4, 4, 5], [4, 6, 6, 2, 7]]","[[3, 3, 1, 3, 3], [3, 3, 3, 3, 1], [1, 3, 3, 3, 3], [3, 3, 1, 3, 3], [3, 1, 3, 1, 3]]","[1, 2, 15, 6, 6]",18,3,1,0.059,0.059,0,"[]",0,"extreme",5,5,4647,0,178,178,2530468291124542464,"attentional-mouselab",7,417966,4
"132","mouselab","False","[]","[[3, 5, 6, 7, 2], [6, 7, 7, 6, 6], [5, 7, 3, 5, 2], [3, 6, 2, 10, 3], [4, 5, 5, 6, 4]]","[[3, 3, 3, 1, 3], [3, 3, 3, 3, 3], [3, 3, 1, 3, 1], [3, 3, 1, 1, 3], [3, 1, 3, 3, 3]]","[9, 5, 9, 2, 5]",12,4,0,0.043,0.043,0,"[]",0,"extreme",5,5,2275,0,128,128,3891853236707927552,"attentional-mouselab",8,421710,4
"133","mouselab","False","[]","[[6, 7, 6, 3, 1], [2, 3, 7, 6, 5], [5, 2, 5, 4, 5], [5, 6, 7, 4, 5], [6, 7, 5, 4, 4]]","[[3, 3, 1, 3, 3], [3, 3, 1, 3, 3], [3, 3, 3, 3, 3], [1, 3, 1, 3, 3], [1, 3, 1, 3, 3]]","[2, 14, 5, 8, 1]",20,5,3,0.049,0.049,0,"[]",0,"greedy",5,5,1316,0,146,146,5258021944149556224,"attentional-mouselab",9,424257,4
"134","mouselab","False","[]","[[5, 6, 7, 6, 5], [8, 1, 4, 3, 4], [8, 5, 3, 7, 3], [5, 7, 6, 5, 2], [4, 9, 5, 5, 5]]","[[3, 3, 3, 3, 3], [1, 3, 3, 3, 3], [1, 3, 3, 3, 3], [3, 3, 1, 1, 1], [3, 1, 3, 3, 3]]","[3, 4, 4, 5, 14]",16,6,2,0.05,0.05,0,"[]",0,"greedy",5,5,1335,0,149,149,15864322804666736640,"attentional-mouselab",10,427045,4
"135","mouselab","False","[]","[[8, 4, 3, 4, 5], [6, 3, 6, 7, 5], [6, 4, 4, 4, 3], [3, 2, 3, 8, 3], [4, 10, 5, 6, 8]]","[[1, 3, 3, 3, 3], [3, 1, 3, 3, 1], [1, 3, 3, 3, 3], [1, 3, 3, 3, 3], [1, 3, 3, 3, 3]]","[2, 13, 7, 3, 5]",16,7,3,0.06,0.06,0,"[]",0,"random",5,5,1368,0,181,181,14370154337568069632,"attentional-mouselab",11,429589,4
"136","mouselab","False","[]","[[5, 4, 8, 6, 5], [3, 5, 7, 1, 2], [5, 4, 6, 3, 6], [6, 6, 3, 6, 1], [8, 4, 5, 4, 3]]","[[1, 3, 3, 3, 3], [3, 3, 3, 1, 1], [3, 3, 3, 1, 3], [3, 3, 3, 3, 3], [1, 1, 3, 3, 3]]","[4, 7, 1, 15, 3]",20,8,2,0.049,0.049,0,"[]",0,"random",5,5,2418,0,147,147,17421820996993138688,"attentional-mouselab",12,433490,4
"137","mouselab","False","[]","[[5, 6, 7, 5, 4], [4, 3, 7, 4, 5], [6, 7, 2, 4, 4], [5, 6, 7, 5, 7], [3, 6, 4, 7, 3]]","[[3, 3, 3, 3, 3], [1, 3, 1, 3, 3], [3, 1, 3, 3, 1], [3, 3, 1, 3, 3], [3, 3, 1, 3, 3]]","[2, 2, 11, 7, 8]",16,9,3,0.051,0.051,0,"[]",0,"greedy",5,5,1207,0,153,153,6633117885993619456,"attentional-mouselab",13,435873,4
"138","mouselab","False","[]","[[7, 5, 5, 7, 5], [9, 5, 7, 8, 4], [2, 7, 6, 3, 10], [4, 5, 4, 3, 3], [4, 6, 5, 8, 3]]","[[1, 1, 3, 3, 3], [1, 3, 3, 3, 3], [3, 3, 3, 3, 1], [3, 3, 3, 3, 3], [3, 3, 1, 1, 3]]","[4, 4, 1, 13, 8]",18,10,2,0.049,0.049,0,"[]",0,"extreme",5,5,1410,0,146,146,12103615819664719872,"attentional-mouselab",14,438417,4
"139","mouselab","False","[]","[[7, 6, 6, 2, 3], [5, 4, 5, 4, 3], [7, 8, 1, 5, 6], [9, 6, 6, 6, 7], [5, 4, 7, 4, 6]]","[[1, 3, 1, 3, 3], [1, 3, 3, 3, 3], [1, 3, 3, 3, 3], [1, 3, 3, 3, 3], [3, 3, 1, 3, 3]]","[11, 1, 7, 2, 9]",18,11,4,0.049,0.049,0,"[]",0,"greedy",5,5,2019,0,146,146,9015508355637971968,"attentional-mouselab",15,441599,4
"140","mouselab","False","[]","[[5, 6, 7, 6, 5], [3, 4, 6, 5, 6], [4, 3, 5, 4, 6], [5, 1, 4, 2, 7], [3, 9, 7, 7, 5]]","[[3, 3, 1, 3, 3], [1, 3, 1, 3, 3], [3, 3, 3, 3, 3], [3, 3, 3, 3, 1], [3, 3, 1, 1, 3]]","[5, 4, 4, 2, 15]",18,12,1,0.065,0.065,0,"[]",0,"greedy",5,5,1210,0,195,195,16564513325458694144,"attentional-mouselab",16,443879,4
"141","mouselab","False","[]","[[3, 6, 2, 5, 4], [8, 5, 7, 8, 6], [4, 5, 6, 4, 6], [7, 4, 6, 4, 4], [3, 6, 7, 4, 5]]","[[3, 3, 1, 3, 3], [1, 3, 3, 1, 3], [3, 3, 3, 3, 3], [1, 1, 3, 3, 3], [3, 3, 3, 3, 1]]","[6, 2, 10, 5, 7]",10,13,3,0.045,0.045,0,"[]",0,"extreme",5,5,1894,0,134,134,11519850379370936320,"attentional-mouselab",17,446825,4
"142","mouselab","False","[]","[[7, 5, 6, 3, 3], [2, 5, 3, 3, 5], [9, 6, 4, 3, 5], [6, 9, 6, 3, 4], [4, 7, 8, 3, 7]]","[[3, 3, 3, 3, 3], [1, 1, 3, 3, 3], [1, 1, 3, 3, 3], [3, 1, 3, 3, 3], [3, 1, 3, 3, 3]]","[1, 9, 3, 4, 13]",20,14,2,0.058,0.058,0,"[]",0,"extreme",5,5,764,0,173,173,130123370715855152,"attentional-mouselab",18,448570,4
"143","mouselab","False","[]","[[2, 6, 6, 6, 3], [4, 7, 3, 5, 2], [6, 4, 6, 6, 7], [2, 5, 6, 5, 6], [5, 3, 5, 4, 4]]","[[3, 3, 1, 3, 3], [3, 1, 3, 3, 1], [3, 3, 3, 3, 3], [3, 3, 1, 3, 1], [3, 3, 3, 1, 3]]","[7, 2, 3, 7, 11]",14,15,3,0.05,0.05,0,"[]",0,"greedy",5,5,719,0,149,149,15930529235757496320,"attentional-mouselab",19,450610,4
"144","mouselab","False","[]","[[4, 3, 3, 6, 6], [4, 5, 4, 5, 8], [8, 4, 6, 5, 3], [4, 2, 4, 10, 4], [3, 3, 3, 3, 2]]","[[3, 3, 3, 1, 3], [3, 3, 3, 3, 3], [3, 3, 1, 1, 1], [3, 1, 3, 3, 3], [3, 1, 3, 3, 3]]","[9, 8, 9, 3, 1]",16,16,0,0.052,0.052,0,"[]",0,"random",5,5,851,0,155,155,3430665587302250496,"attentional-mouselab",20,452728,4
"145","mouselab","False","[]","[[4, 1, 6, 5, 7], [5, 3, 3, 4, 3], [7, 1, 4, 3, 4], [4, 6, 9, 8, 3], [3, 6, 3, 9, 4]]","[[3, 3, 3, 3, 3], [1, 3, 3, 3, 1], [1, 3, 3, 3, 3], [3, 1, 3, 1, 3], [3, 3, 3, 1, 3]]","[4, 14, 2, 6, 4]",16,17,1,0.036,0.036,0,"[]",0,"greedy",5,5,1474,0,108,108,8277407663224224768,"attentional-mouselab",21,455468,4
"146","mouselab","False","[]","[[3, 4, 7, 1, 6], [6, 5, 4, 6, 5], [4, 4, 10, 5, 2], [5, 2, 2, 9, 0], [0, 2, 6, 6, 5]]","[[1, 3, 3, 3, 3], [1, 3, 1, 3, 3], [3, 3, 1, 3, 3], [3, 3, 3, 3, 3], [3, 1, 3, 1, 3]]","[7, 3, 5, 12, 3]",14,18,4,0.027,0.027,0,"[]",0,"random",5,5,1381,0,82,82,18344351636919889920,"attentional-mouselab",22,458104,4
"147","mouselab","False","[]","[[4, 4, 5, 2, 6], [4, 3, 2, 3, 2], [5, 2, 3, 5, 6], [4, 10, 4, 5, 1], [6, 5, 5, 4, 8]]","[[3, 3, 1, 3, 1], [3, 3, 3, 3, 3], [1, 3, 3, 3, 1], [3, 1, 3, 3, 3], [3, 3, 3, 3, 1]]","[2, 6, 15, 2, 5]",18,19,2,0.033,0.033,0,"[]",0,"greedy",5,5,1327,0,100,100,151712123003180224,"attentional-mouselab",23,460400,4
"148","mouselab","False","[]","[[5, 3, 4, 3, 1], [8, 4, 2, 4, 7], [8, 6, 5, 4, 7], [6, 4, 6, 4, 4], [5, 6, 8, 6, 3]]","[[3, 3, 1, 3, 1], [3, 3, 3, 3, 3], [1, 3, 3, 3, 3], [3, 3, 3, 3, 1], [3, 1, 1, 3, 3]]","[1, 4, 4, 2, 19]",26,20,1,0.055,0.055,0,"[]",0,"extreme",5,5,1045,0,165,165,6946566330356626432,"attentional-mouselab",24,462600,4
"149","mouselab","False","[]","[[4, 3, 4, 3, 7], [2, 6, 8, 8, 6], [7, 4, 6, 5, 6], [7, 4, 3, 7, 4], [6, 4, 8, 8, 5]]","[[1, 3, 1, 3, 3], [3, 3, 3, 3, 3], [3, 1, 3, 3, 1], [3, 3, 3, 1, 3], [1, 3, 3, 3, 3]]","[2, 17, 4, 3, 4]",22,21,2,0.07,0.07,0,"[]",0,"random",5,5,931,0,209,209,6984855784574667776,"attentional-mouselab",25,465310,4
"150","mouselab","False","[]","[[5, 4, 6, 6, 3], [1, 5, 4, 4, 4], [5, 5, 5, 3, 6], [8, 5, 5, 3, 6], [4, 2, 3, 3, 6]]","[[3, 3, 3, 1, 3], [3, 3, 3, 3, 3], [3, 3, 1, 3, 1], [1, 3, 3, 3, 3], [3, 3, 3, 1, 1]]","[1, 5, 2, 6, 16]",20,22,1,0.034,0.034,0,"[]",0,"greedy",5,5,1906,0,101,101,13116753450461659136,"attentional-mouselab",26,468218,4
"151","mouselab","False","[]","[[3, 2, 2, 2, 5], [5, 4, 4, 6, 7], [5, 6, 4, 5, 5], [4, 4, 7, 6, 4], [6, 4, 3, 5, 5]]","[[3, 3, 3, 3, 3], [1, 3, 3, 3, 3], [3, 1, 3, 3, 1], [3, 1, 3, 3, 3], [3, 1, 1, 3, 3]]","[1, 3, 13, 3, 10]",22,23,2,0.039,0.039,0,"[]",0,"random",5,5,1109,0,117,117,1803706787432589568,"attentional-mouselab",27,470326,4
"152","mouselab","False","[]","[[8, 3, 7, 5, 4], [7, 0, 4, 5, 5], [4, 5, 5, 5, 6], [7, 4, 7, 5, 4], [4, 3, 5, 6, 6]]","[[1, 1, 1, 3, 3], [3, 1, 3, 3, 3], [3, 3, 1, 3, 3], [1, 3, 3, 3, 3], [3, 3, 3, 3, 3]]","[7, 11, 5, 4, 3]",12,24,3,0.051,0.051,0,"[]",0,"extreme",5,5,953,0,153,153,13392206166918828032,"attentional-mouselab",28,472220,4
"153","mouselab","False","[]","[[5, 4, 2, 7, 7], [8, 4, 4, 4, 7], [6, 6, 4, 4, 5], [4, 5, 4, 6, 3], [5, 2, 5, 4, 5]]","[[3, 3, 1, 3, 3], [1, 1, 3, 3, 3], [3, 3, 3, 3, 1], [3, 3, 3, 3, 1], [3, 1, 3, 3, 3]]","[2, 3, 5, 7, 13]",16,25,2,0.043,0.043,0,"[]",0,"extreme",5,5,1072,0,129,129,1803659296365908224,"attentional-mouselab",29,474442,4
"154","mouselab","False","[]","[[7, 4, 5, 5, 9], [8, 4, 4, 3, 3], [4, 7, 1, 7, 8], [8, 4, 2, 8, 7], [2, 5, 9, 3, 5]]","[[3, 3, 3, 1, 3], [1, 1, 1, 3, 3], [3, 3, 3, 1, 3], [3, 3, 3, 3, 3], [3, 3, 3, 1, 3]]","[21, 2, 2, 3, 2]",30,26,1,0.043,0.043,0,"[]",0,"random",5,5,1265,0,128,128,17623380982668642304,"attentional-mouselab",30,476897,4
"155","mouselab","False","[]","[[4, 8, 8, 5, 3], [6, 7, 5, 7, 5], [3, 4, 5, 6, 3], [4, 7, 4, 5, 4], [3, 5, 5, 5, 6]]","[[3, 1, 1, 3, 1], [3, 3, 1, 3, 3], [3, 3, 3, 3, 3], [3, 1, 3, 3, 3], [3, 3, 3, 1, 3]]","[13, 3, 8, 2, 4]",18,27,3,0.055,0.055,0,"[]",0,"extreme",5,5,734,0,164,164,1871432663312556544,"attentional-mouselab",31,478836,4
"156","mouselab","False","[]","[[6, 5, 5, 5, 4], [2, 3, 7, 3, 5], [3, 5, 5, 4, 6], [3, 5, 5, 3, 7], [3, 6, 5, 5, 6]]","[[3, 3, 3, 3, 1], [1, 3, 3, 1, 3], [3, 1, 3, 1, 3], [3, 3, 3, 3, 3], [1, 3, 3, 3, 3]]","[1, 10, 9, 2, 8]",18,28,2,0.057,0.057,0,"[]",0,"extreme",5,5,1088,0,170,170,11924374995686090752,"attentional-mouselab",32,481406,4
"157","mouselab","False","[]","[[7, 8, 3, 7, 3], [3, 4, 4, 8, 7], [3, 6, 5, 6, 7], [4, 8, 6, 6, 4], [8, 7, 8, 5, 5]]","[[3, 3, 3, 3, 3], [3, 3, 1, 3, 3], [3, 1, 1, 3, 3], [3, 1, 3, 3, 1], [3, 3, 3, 3, 1]]","[10, 4, 4, 4, 8]",12,29,1,0.069,0.069,0,"[]",0,"random",5,5,1381,0,208,208,7958758670217122816,"attentional-mouselab",33,484100,4
"158","mouselab","False","[]","[[5, 2, 6, 8, 5], [4, 3, 6, 4, 5], [5, 5, 4, 4, 2], [3, 5, 2, 5, 8], [4, 5, 6, 8, 5]]","[[3, 3, 3, 1, 3], [3, 3, 1, 3, 1], [3, 3, 3, 3, 3], [3, 3, 1, 3, 1], [3, 3, 3, 1, 3]]","[1, 6, 4, 11, 8]",14,30,2,0.043,0.043,0,"[]",0,"greedy",5,5,1215,0,128,128,17052940410194444288,"attentional-mouselab",34,486250,4
"159","mouselab","False","[]","[[7, 4, 4, 6, 8], [7, 1, 8, 4, 6], [7, 6, 6, 4, 3], [6, 4, 7, 2, 7], [4, 6, 4, 8, 3]]","[[3, 1, 1, 1, 3], [3, 3, 3, 1, 3], [1, 3, 3, 3, 3], [3, 3, 3, 3, 1], [3, 3, 3, 3, 3]]","[11, 9, 3, 3, 4]",16,31,2,0.057,0.057,0,"[]",0,"random",5,5,881,0,171,171,9401549732085469184,"attentional-mouselab",35,488212,4
"160","mouselab","False","[]","[[4, 7, 5, 5, 2], [7, 3, 5, 5, 3], [9, 5, 2, 6, 5], [3, 4, 6, 7, 4], [4, 6, 4, 3, 5]]","[[3, 3, 1, 1, 3], [3, 1, 3, 3, 1], [3, 3, 3, 3, 3], [3, 3, 1, 3, 1], [3, 3, 3, 3, 3]]","[3, 10, 3, 11, 3]",18,32,1,0.043,0.043,0,"[]",0,"random",5,5,1205,0,128,128,6774739096051671040,"attentional-mouselab",36,490408,4
"161","mouselab","True","[]","[[6, 3, 10, 5, 8], [8, 4, 6, 3, 9], [2, 4, 7, 5, 6], [5, 5, 4, 4, 3], [3, 6, 3, 5, 6]]","[[3, 3, 1, 3, 3], [3, 3, 1, 3, 3], [3, 3, 1, 3, 3], [1, 3, 3, 1, 3], [3, 3, 3, 1, 3]]","[7, 10, 3, 9, 1]",16,1,3,0.04,0.04,0,"[]",0,"random",5,5,16380,0,121,121,10521234204420409344,"attentional-mouselab",4,372026,5
"162","mouselab","True","[]","[[3, 4, 3, 5, 4], [5, 2, 7, 5, 3], [5, 3, 6, 5, 5], [6, 6, 9, 3, 3], [2, 0, 5, 3, 4]]","[[3, 3, 1, 1, 1], [3, 1, 3, 3, 3], [3, 3, 3, 1, 3], [3, 1, 3, 3, 3], [3, 3, 3, 3, 3]]","[5, 3, 3, 7, 12]",14,2,0,0.037,0.037,0,"[]",0,"random",5,5,8720,0,111,111,13846452137192302592,"attentional-mouselab",5,384624,5
"163","mouselab","False","[]","[[4, 4, 6, 5, 3], [4, 6, 5, 5, 6], [7, 6, 6, 8, 3], [5, 3, 5, 2, 8], [4, 8, 6, 3, 5]]","[[3, 3, 3, 1, 3], [3, 1, 3, 3, 3], [3, 3, 3, 1, 3], [3, 3, 3, 1, 1], [3, 3, 3, 3, 1]]","[5, 1, 4, 17, 3]",22,3,4,0.061,0.061,0,"[]",0,"extreme",5,5,17948,0,184,184,14978217556395628544,"attentional-mouselab",7,409138,5
"164","mouselab","False","[]","[[8, 5, 3, 4, 6], [6, 5, 5, 6, 6], [8, 3, 7, 6, 6], [3, 4, 4, 5, 2], [4, 5, 4, 4, 6]]","[[1, 3, 3, 1, 3], [3, 3, 3, 3, 3], [1, 3, 3, 3, 3], [1, 1, 3, 3, 1], [3, 3, 3, 3, 3]]","[4, 9, 10, 6, 1]",14,4,3,0.055,0.055,0,"[]",0,"extreme",5,5,20876,0,164,164,2665736556917967872,"attentional-mouselab",8,432810,5
"165","mouselab","False","[]","[[4, 6, 6, 5, 5], [7, 7, 4, 7, 5], [4, 5, 5, 5, 5], [5, 2, 4, 3, 1], [6, 8, 7, 2, 4]]","[[3, 3, 3, 3, 3], [3, 1, 1, 1, 3], [3, 3, 3, 3, 3], [3, 3, 3, 1, 3], [3, 3, 1, 3, 1]]","[8, 6, 4, 2, 10]",12,5,2,0.057,0.057,0,"[]",0,"random",5,5,17819,0,170,170,8987415120352720896,"attentional-mouselab",9,452872,5
"166","mouselab","False","[]","[[7, 6, 8, 5, 3], [4, 6, 5, 4, 4], [6, 7, 5, 8, 6], [4, 3, 8, 5, 3], [4, 6, 4, 6, 6]]","[[3, 1, 3, 1, 1], [1, 3, 1, 3, 3], [3, 3, 3, 3, 3], [3, 1, 3, 3, 3], [3, 3, 3, 3, 3]]","[8, 3, 5, 13, 1]",18,6,1,0.049,0.049,0,"[]",0,"random",5,5,13575,0,146,146,8843124051712059392,"attentional-mouselab",10,469227,5
"167","mouselab","False","[]","[[5, 4, 5, 4, 5], [3, 3, 4, 6, 6], [7, 4, 7, 4, 2], [3, 8, 5, 8, 5], [1, 3, 3, 4, 8]]","[[3, 3, 3, 3, 3], [3, 3, 3, 1, 1], [3, 1, 1, 3, 3], [3, 3, 3, 1, 3], [3, 3, 3, 3, 1]]","[3, 17, 2, 3, 5]",22,7,0,0.031,0.031,0,"[]",0,"greedy",5,5,12821,0,94,94,231627033359898560,"attentional-mouselab",11,483954,5
"168","mouselab","False","[]","[[5, 5, 4, 10, 3], [8, 3, 5, 3, 5], [6, 7, 5, 0, 3], [5, 5, 6, 3, 2], [5, 6, 8, 5, 6]]","[[3, 3, 3, 3, 1], [1, 3, 3, 3, 3], [1, 1, 3, 3, 3], [3, 3, 3, 3, 3], [3, 3, 1, 3, 1]]","[13, 6, 2, 6, 3]",14,8,4,0.035,0.035,0,"[]",0,"greedy",5,5,5964,0,105,105,2086687518992383488,"attentional-mouselab",12,492239,5
"169","mouselab","False","[]","[[8, 9, 6, 4, 1], [5, 4, 6, 5, 4], [3, 6, 3, 4, 5], [5, 4, 6, 4, 6], [5, 5, 5, 8, 4]]","[[1, 3, 3, 1, 3], [3, 1, 3, 3, 3], [1, 3, 3, 3, 3], [3, 3, 3, 3, 1], [3, 1, 3, 3, 3]]","[11, 11, 3, 4, 1]",20,9,3,0.045,0.045,0,"[]",0,"random",5,5,7415,0,135,135,15421507882825707520,"attentional-mouselab",13,501544,5
"170","mouselab","False","[]","[[4, 6, 6, 6, 7], [9, 4, 6, 5, 5], [4, 5, 4, 3, 6], [3, 7, 8, 3, 6], [7, 7, 5, 7, 5]]","[[3, 3, 3, 1, 3], [1, 3, 3, 3, 3], [3, 3, 3, 1, 3], [3, 3, 1, 3, 1], [3, 3, 3, 1, 3]]","[1, 6, 5, 10, 8]",12,10,2,0.061,0.061,0,"[]",0,"extreme",5,5,18476,0,182,182,1229355313675089664,"attentional-mouselab",14,522224,5
"171","mouselab","False","[]","[[2, 7, 7, 8, 5], [5, 5, 8, 5, 3], [2, 7, 2, 5, 7], [5, 7, 6, 2, 3], [6, 7, 5, 2, 5]]","[[3, 1, 3, 3, 3], [3, 3, 1, 3, 3], [3, 1, 3, 3, 3], [3, 1, 3, 1, 3], [3, 1, 3, 3, 3]]","[3, 3, 6, 4, 14]",16,11,1,0.068,0.068,0,"[]",0,"greedy",5,5,12915,0,204,204,16695774702773823488,"attentional-mouselab",15,536891,5
"172","mouselab","False","[]","[[2, 4, 2, 5, 3], [6, 8, 5, 6, 1], [5, 3, 5, 5, 6], [6, 7, 1, 4, 4], [5, 5, 3, 5, 5]]","[[1, 3, 3, 1, 1], [3, 1, 3, 3, 3], [3, 3, 3, 1, 3], [3, 1, 3, 3, 3], [3, 3, 3, 3, 3]]","[7, 2, 4, 10, 7]",12,12,3,0.047,0.047,0,"[]",0,"greedy",5,5,27422,0,142,142,15222990869482067968,"attentional-mouselab",16,566073,5
"173","mouselab","False","[]","[[3, 3, 3, 5, 5], [9, 7, 6, 5, 1], [3, 6, 7, 2, 4], [7, 3, 2, 5, 6], [6, 5, 4, 5, 5]]","[[3, 3, 1, 3, 1], [1, 3, 3, 3, 1], [1, 3, 3, 3, 3], [3, 3, 1, 3, 3], [3, 3, 3, 3, 3]]","[2, 1, 2, 15, 10]",26,13,0,0.062,0.062,0,"[]",0,"extreme",5,5,9429,0,186,186,7630023391710269440,"attentional-mouselab",17,577201,5
"174","mouselab","False","[]","[[5, 2, 6, 7, 2], [7, 5, 3, 8, 8], [4, 7, 7, 3, 6], [7, 4, 8, 5, 5], [7, 6, 8, 4, 2]]","[[3, 1, 1, 3, 3], [3, 3, 1, 3, 1], [3, 3, 3, 3, 3], [3, 3, 3, 3, 3], [3, 3, 1, 1, 3]]","[2, 11, 2, 6, 9]",16,14,4,0.051,0.051,0,"[]",0,"extreme",5,5,13429,0,152,152,9193070766328639488,"attentional-mouselab",18,593634,5
"175","mouselab","False","[]","[[4, 8, 8, 5, 6], [4, 5, 4, 4, 7], [4, 4, 4, 6, 4], [5, 0, 8, 6, 5], [4, 6, 3, 7, 6]]","[[3, 1, 3, 1, 3], [3, 3, 3, 3, 1], [3, 3, 3, 3, 3], [3, 1, 1, 3, 1], [3, 3, 3, 3, 3]]","[7, 7, 6, 2, 8]",8,15,4,0.058,0.058,0,"[]",0,"extreme",5,5,10059,0,173,173,2654914913506865664,"attentional-mouselab",19,606420,5
"176","mouselab","False","[]","[[5, 5, 5, 5, 2], [2, 3, 4, 3, 5], [5, 2, 3, 5, 3], [3, 5, 7, 8, 4], [3, 3, 2, 6, 5]]","[[3, 3, 1, 3, 1], [1, 1, 3, 3, 3], [1, 3, 3, 3, 3], [3, 3, 3, 1, 3], [3, 3, 3, 3, 3]]","[2, 8, 9, 3, 8]",14,16,0,0.035,0.035,0,"[]",0,"greedy",5,5,6694,0,104,104,1.0712625246226e+19,"attentional-mouselab",20,615434,5
"177","mouselab","False","[]","[[6, 5, 6, 5, 3], [5, 6, 4, 5, 6], [5, 7, 4, 3, 8], [4, 4, 7, 7, 4], [5, 5, 3, 7, 8]]","[[3, 3, 3, 3, 3], [3, 1, 3, 3, 1], [3, 3, 3, 3, 1], [3, 3, 3, 1, 3], [3, 1, 3, 3, 1]]","[3, 5, 6, 3, 13]",14,17,4,0.068,0.068,0,"[]",0,"greedy",5,5,7340,0,203,203,12551490197937866752,"attentional-mouselab",21,624634,5
"178","mouselab","False","[]","[[6, 4, 5, 4, 5], [4, 8, 3, 9, 3], [6, 3, 6, 2, 4], [2, 0, 6, 5, 7], [4, 6, 6, 2, 7]]","[[3, 3, 3, 3, 3], [3, 3, 3, 1, 3], [3, 3, 3, 1, 3], [3, 1, 3, 1, 1], [3, 3, 3, 3, 1]]","[10, 8, 10, 1, 1]",20,18,3,0.046,0.046,0,"[]",0,"greedy",5,5,4505,0,139,139,1433476370942936320,"attentional-mouselab",22,631114,5
"179","mouselab","False","[]","[[5, 3, 6, 7, 4], [7, 3, 3, 5, 6], [6, 5, 8, 6, 5], [4, 3, 4, 5, 9], [7, 5, 4, 7, 4]]","[[3, 3, 3, 1, 3], [1, 3, 3, 3, 3], [3, 3, 3, 3, 1], [3, 3, 3, 3, 1], [1, 3, 3, 1, 3]]","[2, 14, 9, 4, 1]",22,19,0,0.062,0.062,0,"[]",0,"greedy",5,5,18940,0,185,185,17567487066781511680,"attentional-mouselab",23,651975,5
"180","mouselab","False","[]","[[5, 9, 6, 4, 2], [5, 3, 5, 3, 7], [5, 5, 3, 5, 6], [1, 5, 5, 6, 4], [2, 5, 3, 7, 5]]","[[3, 1, 1, 3, 1], [3, 3, 3, 3, 1], [1, 3, 3, 3, 3], [3, 3, 3, 3, 3], [3, 3, 3, 1, 3]]","[3, 7, 11, 4, 5]",12,20,0,0.04,0.04,0,"[]",0,"greedy",5,5,10178,0,119,119,1.8192161699792e+19,"attentional-mouselab",24,663691,5
"181","mouselab","False","[]","[[5, 6, 5, 5, 4], [3, 3, 5, 2, 5], [2, 4, 4, 7, 3], [5, 5, 7, 7, 4], [6, 5, 5, 8, 6]]","[[1, 1, 3, 3, 3], [3, 3, 1, 3, 3], [3, 3, 3, 1, 3], [3, 3, 3, 1, 3], [1, 3, 3, 3, 3]]","[3, 2, 1, 3, 21]",30,21,0,0.055,0.055,0,"[]",0,"random",5,5,3853,0,164,164,1161197681209234432,"attentional-mouselab",25,669181,5
"182","mouselab","False","[]","[[7, 6, 7, 8, 2], [4, 5, 2, 4, 3], [3, 4, 5, 5, 4], [7, 5, 4, 6, 5], [2, 4, 5, 5, 7]]","[[3, 3, 3, 1, 3], [3, 3, 3, 3, 1], [3, 3, 3, 3, 3], [1, 1, 1, 1, 3], [3, 3, 3, 3, 3]]","[4, 16, 4, 1, 5]",20,22,4,0.037,0.037,0,"[]",0,"random",5,5,5349,0,112,112,4872840703789262848,"attentional-mouselab",26,676927,5
"183","mouselab","False","[]","[[6, 8, 7, 5, 4], [5, 6, 7, 2, 4], [8, 5, 8, 3, 3], [7, 6, 4, 4, 4], [5, 4, 7, 5, 3]]","[[3, 1, 3, 3, 3], [3, 3, 3, 1, 3], [1, 3, 1, 3, 3], [1, 3, 3, 1, 3], [3, 3, 3, 3, 3]]","[3, 3, 2, 17, 5]",22,23,0,0.064,0.064,0,"[]",0,"extreme",5,5,5166,0,193,193,5306897818374347776,"attentional-mouselab",27,683738,5
"184","mouselab","False","[]","[[8, 4, 7, 4, 7], [0, 5, 4, 4, 2], [3, 7, 7, 6, 5], [7, 1, 4, 6, 8], [5, 7, 5, 4, 4]]","[[1, 3, 3, 1, 3], [1, 3, 3, 3, 1], [3, 3, 3, 3, 3], [3, 1, 3, 3, 1], [3, 3, 3, 3, 3]]","[12, 7, 2, 8, 1]",18,24,0,0.054,0.054,0,"[]",0,"extreme",5,5,3730,0,163,163,5316268825700379648,"attentional-mouselab",28,688820,5
"185","mouselab","False","[]","[[1, 6, 6, 4, 6], [3, 5, 7, 3, 6], [4, 6, 4, 6, 6], [8, 7, 3, 4, 6], [7, 2, 2, 5, 6]]","[[3, 3, 3, 3, 3], [3, 3, 3, 1, 3], [3, 1, 3, 1, 3], [3, 1, 1, 1, 3], [3, 3, 3, 3, 3]]","[8, 7, 5, 2, 8]",10,25,3,0.044,0.044,0,"[]",0,"random",5,5,4021,0,131,131,6320641483830503424,"attentional-mouselab",29,694639,5
"186","mouselab","False","[]","[[3, 5, 6, 4, 5], [6, 7, 9, 3, 8], [8, 7, 6, 4, 5], [3, 8, 6, 4, 5], [4, 2, 5, 4, 5]]","[[1, 3, 3, 1, 1], [3, 1, 3, 3, 3], [3, 3, 3, 3, 1], [3, 3, 3, 3, 1], [3, 3, 3, 3, 3]]","[6, 4, 8, 8, 4]",8,26,4,0.054,0.054,0,"[]",0,"random",5,5,3983,0,162,162,14920728493487267840,"attentional-mouselab",30,701103,5
"187","mouselab","False","[]","[[6, 3, 4, 6, 3], [7, 2, 2, 7, 5], [3, 5, 3, 2, 2], [4, 6, 3, 4, 7], [3, 2, 7, 6, 2]]","[[1, 3, 3, 3, 3], [3, 3, 3, 1, 3], [3, 3, 3, 3, 3], [3, 1, 1, 1, 3], [3, 1, 3, 3, 3]]","[2, 2, 7, 4, 15]",20,27,1,0.033,0.033,0,"[]",0,"random",5,5,3423,0,99,99,18378488653086619648,"attentional-mouselab",31,706040,5
"188","mouselab","False","[]","[[6, 6, 4, 7, 6], [6, 8, 4, 9, 6], [4, 3, 4, 3, 5], [7, 1, 2, 7, 6], [4, 6, 6, 5, 7]]","[[3, 3, 1, 1, 3], [3, 3, 1, 3, 1], [3, 3, 3, 3, 3], [3, 3, 3, 3, 3], [3, 3, 3, 1, 1]]","[4, 13, 4, 8, 1]",18,28,2,0.035,0.035,0,"[]",0,"random",5,5,4091,0,106,106,7535496658907553792,"attentional-mouselab",32,712051,5
"189","mouselab","False","[]","[[7, 4, 4, 8, 7], [6, 4, 2, 7, 2], [5, 4, 4, 3, 4], [7, 6, 8, 6, 3], [4, 6, 5, 7, 5]]","[[1, 3, 3, 1, 3], [3, 1, 1, 3, 1], [3, 3, 3, 3, 3], [3, 3, 1, 3, 3], [3, 3, 3, 3, 3]]","[4, 9, 3, 6, 8]",10,29,4,0.039,0.039,0,"[]",0,"extreme",5,5,14393,0,116,116,5044514603436122112,"attentional-mouselab",33,728289,5
"190","mouselab","False","[]","[[8, 3, 7, 3, 5], [5, 6, 6, 10, 7], [7, 5, 9, 6, 6], [7, 8, 7, 3, 6], [5, 3, 5, 7, 7]]","[[3, 3, 1, 3, 3], [3, 3, 3, 1, 3], [3, 3, 1, 3, 3], [3, 3, 1, 3, 1], [3, 3, 3, 1, 3]]","[5, 4, 5, 5, 11]",10,30,3,0.059,0.059,0,"[]",0,"greedy",5,5,6731,0,177,177,14587443515003932672,"attentional-mouselab",34,736588,5
"191","mouselab","False","[]","[[5, 2, 2, 9, 3], [3, 5, 4, 5, 7], [5, 4, 4, 1, 7], [3, 8, 6, 6, 7], [3, 6, 5, 2, 2]]","[[1, 1, 1, 3, 1], [3, 1, 3, 3, 3], [3, 3, 3, 3, 3], [3, 3, 3, 1, 3], [3, 3, 3, 3, 3]]","[3, 3, 11, 8, 5]",14,31,3,0.037,0.037,0,"[]",0,"random",5,5,9879,0,111,111,13926450257687615488,"attentional-mouselab",35,748310,5
"192","mouselab","False","[]","[[3, 6, 6, 3, 5], [6, 4, 5, 5, 6], [3, 4, 3, 7, 2], [4, 7, 5, 8, 8], [6, 6, 4, 5, 8]]","[[3, 3, 3, 3, 3], [3, 3, 3, 1, 1], [3, 3, 3, 3, 1], [3, 3, 3, 1, 1], [3, 3, 3, 3, 1]]","[2, 7, 3, 1, 17]",24,32,4,0.067,0.067,0,"[]",0,"extreme",5,5,6978,0,202,202,330528186577103296,"attentional-mouselab",36,757845,5
"193","mouselab","True","[0, 1, 21, 17, 13, 14]","[[9, 5, 7, 7, 3], [2, 4, 6, 5, 7], [8, 6, 5, 5, 5], [6, 3, 5, 4, 4], [5, 5, 4, 4, 8]]","[[1, 1, 3, 3, 3], [3, 3, 3, 3, 3], [3, 3, 3, 1, 1], [3, 3, 1, 3, 3], [3, 1, 3, 3, 3]]","[4, 4, 11, 6, 5]",10,1,1,0.048,0.046,0.002,"[0, 1, 21, 17, 13, 14]",6,"random",5,5,48899,6,145,139,12798514215685681152,"attentional-mouselab",4,346108,6
"194","mouselab","True","[0, 5, 7, 12, 21, 23]","[[3, 4, 7, 1, 6], [6, 5, 4, 6, 5], [4, 4, 10, 5, 2], [5, 2, 2, 9, 0], [0, 2, 6, 6, 5]]","[[1, 3, 3, 3, 3], [1, 3, 1, 3, 3], [3, 3, 1, 3, 3], [3, 3, 3, 3, 3], [3, 1, 3, 1, 3]]","[3, 18, 7, 1, 1]",26,2,2,0.057,0.055,0.002,"[0, 5, 7, 12, 21, 23]",6,"random",5,5,10769,6,171,165,18344351636919889920,"attentional-mouselab",5,367279,6
"195","mouselab","False","[15, 10]","[[5, 6, 9, 4, 3], [6, 0, 2, 5, 3], [8, 6, 8, 5, 5], [7, 4, 6, 6, 1], [6, 5, 4, 4, 4]]","[[3, 3, 1, 3, 1], [3, 3, 3, 3, 3], [1, 1, 3, 3, 3], [1, 3, 3, 3, 3], [3, 3, 1, 3, 3]]","[4, 3, 17, 4, 2]",22,3,0,0.071,0.0703333333333333,0.000666666666666667,"[15, 10]",2,"greedy",5,5,6709,2,214,212,7537691117179404288,"attentional-mouselab",7,383230,6
"196","mouselab","False","[19, 4, 13, 17, 7, 10]","[[1, 7, 6, 4, 6], [8, 9, 4, 4, 2], [0, 4, 3, 5, 5], [5, 6, 7, 6, 4], [3, 2, 6, 4, 2]]","[[3, 3, 3, 3, 1], [3, 3, 1, 3, 3], [1, 3, 3, 1, 3], [3, 3, 1, 3, 1], [3, 3, 3, 3, 3]]","[2, 9, 4, 13, 2]",20,4,1,0.064,0.062,0.002,"[19, 4, 13, 17, 7, 10]",6,"random",5,5,15689,6,193,187,5176084532014663680,"attentional-mouselab",8,401114,6
"197","mouselab","False","[16, 1, 22, 12, 23, 10]","[[4, 4, 8, 5, 8], [5, 4, 5, 5, 5], [4, 6, 4, 3, 4], [3, 4, 4, 5, 8], [6, 5, 6, 3, 7]]","[[3, 1, 3, 3, 3], [3, 3, 3, 3, 3], [1, 3, 1, 3, 3], [3, 1, 3, 3, 3], [3, 3, 1, 1, 3]]","[2, 6, 4, 1, 17]",22,5,4,0.063,0.061,0.002,"[16, 1, 22, 12, 23, 10]",6,"random",5,5,11682,6,189,183,16894703978209390592,"attentional-mouselab",9,416256,6
"198","mouselab","False","[14, 3, 13, 17, 16, 11]","[[4, 5, 6, 3, 5], [5, 3, 4, 4, 4], [5, 6, 4, 5, 2], [5, 6, 5, 7, 3], [5, 5, 4, 4, 6]]","[[3, 3, 3, 1, 3], [3, 3, 3, 3, 3], [3, 1, 3, 1, 1], [3, 1, 1, 3, 3], [3, 3, 3, 3, 3]]","[14, 5, 3, 5, 3]",16,6,1,0.049,0.047,0.002,"[14, 3, 13, 17, 16, 11]",6,"greedy",5,5,12464,6,148,142,8392179610861950976,"attentional-mouselab",10,430837,6
"199","mouselab","False","[10, 5, 0, 17, 12, 24]","[[6, 1, 4, 7, 6], [6, 3, 4, 6, 1], [7, 4, 2, 4, 1], [5, 5, 5, 3, 6], [5, 4, 2, 5, 4]]","[[1, 3, 3, 3, 3], [1, 3, 3, 3, 3], [1, 3, 1, 3, 3], [3, 3, 1, 3, 3], [3, 3, 3, 3, 1]]","[3, 6, 9, 1, 11]",16,7,1,0.035,0.033,0.002,"[10, 5, 0, 17, 12, 24]",6,"greedy",5,5,7874,6,106,100,8982384143863562240,"attentional-mouselab",11,440959,6
"200","mouselab","False","[10, 1, 3, 4, 19, 23]","[[7, 4, 5, 4, 4], [3, 6, 5, 5, 5], [8, 7, 5, 5, 7], [3, 6, 4, 4, 2], [3, 5, 4, 2, 4]]","[[3, 1, 3, 1, 1], [3, 3, 3, 3, 3], [1, 3, 3, 3, 3], [3, 3, 3, 3, 1], [3, 3, 3, 1, 3]]","[1, 10, 7, 7, 5]",12,8,0,0.043,0.041,0.002,"[10, 1, 3, 4, 19, 23]",6,"extreme",5,5,7835,6,129,123,15771268084264581120,"attentional-mouselab",12,450808,6
"201","mouselab","False","[10, 1, 2, 22, 9, 19]","[[4, 4, 8, 7, 5], [5, 8, 3, 5, 7], [7, 4, 6, 2, 5], [6, 3, 3, 7, 9], [4, 6, 4, 5, 3]]","[[3, 1, 1, 3, 3], [3, 3, 3, 3, 1], [1, 3, 3, 3, 3], [3, 3, 3, 3, 1], [3, 3, 1, 3, 3]]","[4, 1, 11, 13, 1]",24,9,4,0.067,0.065,0.002,"[10, 1, 2, 22, 9, 19]",6,"greedy",5,5,9582,6,202,196,11812209960242847744,"attentional-mouselab",13,463508,6
"202","mouselab","False","[0, 1, 17, 7, 3, 24]","[[7, 4, 6, 3, 4], [6, 3, 5, 6, 6], [5, 6, 6, 6, 5], [5, 3, 6, 8, 2], [5, 5, 6, 4, 9]]","[[1, 1, 3, 1, 3], [3, 3, 1, 3, 3], [3, 3, 3, 3, 3], [3, 3, 1, 3, 3], [3, 3, 3, 3, 1]]","[1, 3, 3, 7, 16]",22,10,4,0.065,0.063,0.002,"[0, 1, 17, 7, 3, 24]",6,"random",5,5,8366,6,195,189,18156297152026064896,"attentional-mouselab",14,473687,6
"203","mouselab","False","[15, 10, 5, 6, 24, 14]","[[4, 5, 7, 5, 4], [9, 7, 4, 3, 5], [6, 3, 6, 6, 5], [6, 7, 7, 5, 5], [7, 5, 4, 3, 5]]","[[3, 3, 3, 3, 3], [1, 1, 3, 3, 3], [1, 3, 3, 3, 1], [1, 3, 3, 3, 3], [3, 3, 3, 3, 1]]","[8, 7, 6, 7, 2]",8,11,0,0.062,0.06,0.002,"[15, 10, 5, 6, 24, 14]",6,"random",5,5,6318,6,187,181,16649094095919869952,"attentional-mouselab",15,481744,6
"204","mouselab","False","[20, 11, 1, 13, 14, 24]","[[4, 1, 2, 4, 5], [5, 6, 2, 5, 3], [5, 6, 1, 2, 5], [5, 6, 5, 6, 5], [2, 7, 9, 5, 6]]","[[3, 1, 3, 3, 3], [3, 3, 3, 3, 3], [3, 1, 3, 1, 1], [3, 3, 3, 3, 3], [1, 3, 3, 3, 1]]","[16, 2, 6, 2, 4]",20,12,2,0.029,0.027,0.002,"[20, 11, 1, 13, 14, 24]",6,"random",5,5,10855,6,88,82,1664382904822914048,"attentional-mouselab",16,495458,6
"205","mouselab","False","[21, 1, 2, 13, 9, 4]","[[4, 8, 3, 6, 3], [4, 3, 5, 6, 7], [5, 4, 5, 9, 5], [7, 6, 3, 4, 4], [6, 6, 3, 5, 4]]","[[3, 1, 1, 3, 1], [3, 3, 3, 3, 1], [3, 3, 3, 1, 3], [3, 3, 3, 3, 3], [3, 1, 3, 3, 3]]","[6, 3, 11, 8, 2]",14,13,1,0.054,0.052,0.002,"[21, 1, 2, 13, 9, 4]",6,"extreme",5,5,7190,6,161,155,15569567674519328768,"attentional-mouselab",17,504321,6
"206","mouselab","False","[1, 7, 17]","[[4, 4, 6, 4, 6], [5, 3, 9, 7, 7], [5, 3, 3, 3, 7], [7, 4, 6, 5, 6], [6, 2, 6, 8, 8]]","[[3, 1, 3, 3, 3], [3, 3, 1, 3, 3], [3, 3, 3, 3, 1], [3, 3, 1, 3, 1], [3, 3, 3, 3, 1]]","[7, 6, 2, 12, 3]",14,14,2,0.064,0.063,0.001,"[1, 7, 17]",3,"greedy",5,5,3962,3,192,189,9.485757216597e+18,"attentional-mouselab",18,509935,6
"207","mouselab","False","[21, 1]","[[5, 8, 2, 5, 3], [5, 3, 7, 5, 6], [6, 4, 5, 3, 6], [6, 5, 7, 3, 5], [5, 6, 5, 5, 5]]","[[3, 1, 3, 1, 3], [3, 3, 1, 3, 3], [3, 3, 3, 3, 3], [3, 3, 1, 3, 3], [3, 1, 1, 3, 3]]","[1, 9, 9, 9, 2]",18,15,1,0.043,0.0423333333333333,0.000666666666666667,"[21, 1]",2,"greedy",5,5,4984,2,128,126,2431709435719644160,"attentional-mouselab",19,516649,6
"208","mouselab","False","[0, 11, 2, 12, 17, 22]","[[2, 6, 7, 6, 5], [6, 6, 4, 6, 5], [5, 3, 6, 6, 3], [6, 5, 8, 6, 4], [5, 6, 5, 3, 4]]","[[1, 3, 1, 3, 3], [3, 3, 3, 3, 3], [3, 1, 1, 3, 3], [3, 3, 1, 3, 3], [3, 3, 1, 3, 3]]","[1, 5, 14, 2, 8]",20,16,2,0.056,0.054,0.002,"[0, 11, 2, 12, 17, 22]",6,"extreme",5,5,11633,6,167,161,10243518541290708992,"attentional-mouselab",20,529629,6
"209","mouselab","False","[4, 8, 11, 0]","[[10, 6, 7, 6, 7], [3, 5, 4, 8, 3], [7, 4, 6, 7, 4], [8, 6, 5, 3, 5], [5, 5, 6, 3, 6]]","[[1, 3, 3, 3, 1], [3, 3, 3, 1, 3], [1, 1, 3, 3, 3], [1, 3, 3, 3, 3], [3, 3, 3, 3, 3]]","[5, 6, 9, 7, 3]",8,17,0,0.067,0.0656666666666667,0.00133333333333333,"[4, 8, 11, 0]",4,"extreme",5,5,8117,4,202,198,14535916847150473216,"attentional-mouselab",21,539027,6
"210","mouselab","False","[14, 2, 0]","[[6, 5, 6, 3, 5], [5, 4, 5, 4, 4], [2, 3, 4, 4, 4], [4, 4, 5, 6, 5], [7, 5, 5, 3, 4]]","[[1, 3, 1, 3, 3], [3, 3, 1, 3, 3], [1, 3, 3, 3, 1], [3, 3, 3, 3, 3], [1, 3, 3, 3, 3]]","[5, 5, 4, 9, 7]",8,18,1,0.043,0.042,0.001,"[14, 2, 0]",3,"greedy",5,5,7867,3,128,125,1497337980511365376,"attentional-mouselab",22,548474,6
"211","mouselab","False","[14, 12, 1, 0, 20, 6]","[[2, 7, 9, 3, 6], [0, 3, 3, 3, 2], [5, 6, 6, 8, 4], [8, 5, 4, 6, 5], [7, 4, 6, 6, 7]]","[[1, 1, 3, 3, 3], [3, 1, 3, 3, 3], [3, 3, 1, 3, 1], [3, 3, 3, 3, 3], [1, 3, 3, 3, 3]]","[5, 16, 4, 4, 1]",20,19,3,0.042,0.04,0.002,"[14, 12, 1, 0, 20, 6]",6,"random",5,5,8674,6,125,119,7791683680795347968,"attentional-mouselab",23,558952,6
"212","mouselab","False","[20, 3, 8, 13, 18, 23]","[[7, 4, 7, 6, 4], [4, 7, 6, 6, 4], [2, 5, 2, 6, 6], [6, 5, 5, 7, 6], [4, 7, 6, 6, 2]]","[[3, 3, 3, 1, 3], [3, 3, 3, 1, 3], [3, 3, 3, 1, 3], [3, 3, 3, 1, 3], [1, 3, 3, 1, 3]]","[18, 2, 1, 6, 3]",24,20,1,0.047,0.045,0.002,"[20, 3, 8, 13, 18, 23]",6,"greedy",5,5,9059,6,142,136,14068198985876754432,"attentional-mouselab",24,569566,6
"213","mouselab","False","[4, 2, 16, 17, 22, 24]","[[3, 0, 7, 6, 5], [6, 7, 3, 9, 6], [5, 4, 5, 6, 5], [4, 5, 5, 3, 4], [3, 3, 5, 4, 1]]","[[3, 3, 1, 3, 1], [3, 3, 3, 3, 3], [3, 3, 3, 3, 3], [3, 1, 1, 3, 3], [3, 3, 1, 3, 1]]","[9, 8, 4, 4, 5]",10,21,3,0.061,0.059,0.002,"[4, 2, 16, 17, 22, 24]",6,"random",5,5,6934,6,182,176,15900302962748227584,"attentional-mouselab",25,578571,6
"214","mouselab","False","[4, 14, 8, 6, 7, 17]","[[4, 6, 5, 5, 2], [3, 5, 8, 2, 5], [6, 6, 5, 3, 8], [4, 6, 7, 3, 3], [5, 3, 4, 4, 6]]","[[3, 3, 3, 3, 1], [3, 1, 1, 1, 3], [3, 3, 3, 3, 1], [3, 3, 1, 3, 3], [3, 3, 3, 3, 3]]","[4, 4, 1, 3, 18]",24,22,2,0.05,0.048,0.002,"[4, 14, 8, 6, 7, 17]",6,"extreme",5,5,6470,6,150,144,6648500659062045696,"attentional-mouselab",26,586657,6
"215","mouselab","False","[19, 23, 8]","[[8, 3, 7, 3, 5], [5, 6, 6, 10, 7], [7, 5, 9, 6, 6], [7, 8, 7, 3, 6], [5, 3, 5, 7, 7]]","[[1, 3, 3, 3, 3], [3, 3, 3, 1, 3], [3, 3, 1, 3, 3], [3, 3, 1, 3, 1], [3, 3, 3, 1, 3]]","[7, 9, 6, 3, 5]",8,23,3,0.064,0.063,0.001,"[19, 23, 8]",3,"extreme",5,5,4220,3,191,188,14587443515003932672,"attentional-mouselab",27,592290,6
"216","mouselab","False","[0, 1, 21, 23]","[[5, 6, 5, 6, 7], [5, 4, 6, 3, 2], [3, 4, 6, 7, 6], [7, 5, 5, 5, 3], [5, 6, 5, 10, 7]]","[[1, 1, 3, 1, 3], [3, 3, 3, 3, 3], [3, 3, 3, 1, 3], [3, 3, 3, 3, 3], [3, 1, 3, 1, 3]]","[13, 8, 5, 2, 2]",18,24,3,0.056,0.0546666666666667,0.00133333333333333,"[0, 1, 21, 23]",4,"greedy",5,5,5284,4,167,163,4810340774590892032,"attentional-mouselab",28,598980,6
"217","mouselab","False","[16, 12, 22, 8, 4, 14]","[[3, 5, 7, 7, 4], [4, 8, 6, 7, 7], [6, 5, 4, 8, 4], [3, 6, 5, 5, 4], [6, 3, 3, 5, 5]]","[[3, 3, 3, 3, 1], [3, 3, 3, 1, 3], [3, 3, 1, 3, 1], [3, 1, 3, 3, 3], [3, 3, 1, 3, 3]]","[3, 16, 3, 7, 1]",22,25,0,0.039,0.037,0.002,"[16, 12, 22, 8, 4, 14]",6,"random",5,5,6195,6,118,112,11541310737801388032,"attentional-mouselab",29,606508,6
"218","mouselab","False","[0, 10, 7, 18, 22, 4]","[[4, 4, 3, 2, 6], [3, 5, 2, 7, 5], [4, 5, 6, 8, 3], [7, 6, 8, 4, 3], [7, 0, 7, 4, 4]]","[[1, 3, 3, 3, 1], [3, 3, 1, 3, 3], [1, 3, 3, 3, 3], [3, 3, 3, 1, 3], [3, 3, 1, 3, 3]]","[1, 2, 12, 5, 10]",20,26,4,0.036,0.034,0.002,"[0, 10, 7, 18, 22, 4]",6,"random",5,5,5811,6,107,101,5263315645643458560,"attentional-mouselab",30,613667,6
"219","mouselab","False","[1, 12, 22, 23, 14, 4]","[[5, 5, 5, 6, 9], [5, 4, 5, 4, 5], [3, 7, 4, 7, 2], [5, 6, 6, 3, 3], [5, 6, 2, 4, 7]]","[[3, 1, 3, 3, 1], [3, 3, 3, 3, 3], [3, 3, 1, 3, 1], [3, 3, 3, 3, 3], [3, 3, 1, 1, 3]]","[1, 2, 16, 3, 8]",24,27,1,0.064,0.062,0.002,"[1, 12, 22, 23, 14, 4]",6,"extreme",5,5,9029,6,191,185,9607971045714974720,"attentional-mouselab",31,624663,6
"220","mouselab","False","[15, 0]","[[9, 3, 7, 1, 9], [4, 8, 7, 6, 5], [4, 7, 3, 6, 5], [7, 5, 7, 4, 6], [4, 6, 2, 5, 3]]","[[1, 1, 3, 1, 1], [3, 3, 3, 1, 3], [3, 3, 3, 3, 3], [1, 3, 3, 3, 3], [3, 3, 3, 3, 3]]","[7, 9, 2, 1, 11]",18,28,0,0.053,0.0523333333333333,0.000666666666666667,"[15, 0]",2,"extreme",5,5,2813,2,158,156,15726987570263408640,"attentional-mouselab",32,629235,6
"221","mouselab","False","[23, 8, 7, 22, 11, 10]","[[7, 5, 6, 3, 5], [9, 4, 4, 6, 3], [6, 5, 5, 6, 4], [4, 6, 5, 3, 4], [7, 4, 5, 7, 4]]","[[3, 3, 3, 3, 3], [3, 3, 1, 1, 3], [1, 1, 3, 3, 3], [3, 3, 3, 3, 3], [3, 3, 1, 1, 3]]","[10, 9, 3, 7, 1]",16,29,0,0.068,0.066,0.002,"[23, 8, 7, 22, 11, 10]",6,"random",5,5,6544,6,204,198,6541606266879552512,"attentional-mouselab",33,637078,6
"222","mouselab","False","[14, 9, 2, 6, 16, 21]","[[6, 6, 2, 3, 4], [6, 3, 5, 6, 6], [6, 3, 6, 4, 2], [6, 8, 6, 3, 6], [4, 6, 4, 5, 5]]","[[3, 3, 1, 3, 3], [3, 1, 3, 3, 1], [3, 3, 3, 3, 1], [3, 1, 3, 3, 3], [3, 1, 3, 3, 3]]","[5, 4, 10, 2, 9]",14,30,3,0.043,0.041,0.002,"[14, 9, 2, 6, 16, 21]",6,"extreme",5,5,10840,6,130,124,17273550201698301952,"attentional-mouselab",34,649826,6
"223","mouselab","False","[15, 11, 21, 23, 18, 8]","[[5, 7, 3, 6, 4], [4, 3, 3, 7, 5], [5, 8, 7, 6, 7], [9, 7, 6, 5, 6], [6, 5, 5, 10, 2]]","[[3, 3, 3, 3, 3], [3, 3, 3, 1, 3], [3, 1, 3, 3, 3], [1, 3, 3, 1, 3], [3, 1, 3, 1, 3]]","[5, 3, 7, 1, 14]",18,31,3,0.079,0.077,0.002,"[15, 11, 21, 23, 18, 8]",6,"greedy",5,5,8186,6,238,232,13492386580757700608,"attentional-mouselab",35,659216,6
"224","mouselab","False","[14, 8, 9, 1, 6, 21]","[[6, 7, 5, 3, 4], [5, 6, 5, 9, 7], [4, 7, 7, 4, 2], [5, 4, 3, 6, 6], [6, 4, 5, 6, 5]]","[[3, 1, 3, 3, 3], [3, 1, 3, 1, 1], [3, 3, 3, 3, 1], [3, 3, 3, 3, 3], [3, 1, 3, 3, 3]]","[10, 3, 12, 4, 1]",20,32,3,0.045,0.043,0.002,"[14, 8, 9, 1, 6, 21]",6,"extreme",5,5,7927,6,135,129,794941892435728768,"attentional-mouselab",36,669072,6
"225","mouselab","True","[5, 16, 2, 11, 23, 2, 10, 1, 21, 24, 19, 14, 14, 12, 12, 16, 16, 21, 21, 21, 16, 18, 18, 18, 2, 1, 4, 4, 24, 24, 11, 11, 20, 20, 20, 0, 0, 0, 19, 19, 19, 7, 7, 7, 17, 17, 17, 15, 15, 15, 9, 9, 9, 8, 8, 8, 13, 13, 13, 5, 5, 5, 6, 6, 6, 23, 23, 3, 12, 22, 22, 22, 4]","[[7, 2, 5, 6, 6], [4, 3, 5, 3, 5], [2, 2, 9, 5, 6], [5, 6, 5, 3, 7], [7, 6, 8, 2, 6]]","[[3, 1, 1, 1, 1], [3, 3, 3, 3, 3], [1, 3, 3, 3, 1], [3, 3, 3, 3, 3], [3, 3, 3, 3, 3]]","[6, 8, 1, 8, 7]",10,1,0,0.055,0.034,0.021,"[2, 10, 1, 14, 16, 21, 18, 4, 24, 11, 20, 0, 19, 7, 17, 15, 9, 8, 13, 5, 6, 23, 3, 12, 22]",25,"random",5,5,108300,63,165,102,4668162342378250240,"attentional-mouselab",4,248100,7
"226","mouselab","True","[]","[[7, 5, 4, 3, 5], [5, 5, 6, 1, 5], [2, 4, 6, 5, 7], [5, 7, 1, 6, 5], [4, 5, 5, 6, 5]]","[[3, 3, 3, 3, 3], [1, 3, 3, 3, 3], [3, 3, 1, 1, 3], [3, 1, 1, 3, 1], [3, 3, 3, 3, 3]]","[6, 5, 11, 6, 2]",10,2,2,0.045,0.045,0,"[]",0,"random",5,5,4000,0,136,136,1889358731601123072,"attentional-mouselab",5,257400,7
"227","mouselab","False","[]","[[5, 8, 6, 6, 4], [3, 4, 7, 2, 4], [5, 6, 5, 5, 7], [8, 5, 4, 6, 6], [8, 3, 6, 4, 5]]","[[3, 1, 3, 3, 3], [3, 3, 3, 1, 3], [3, 3, 1, 3, 3], [1, 3, 1, 3, 3], [1, 3, 3, 3, 3]]","[4, 4, 6, 5, 11]",10,3,3,0.045,0.045,0,"[]",0,"extreme",5,5,6600,0,136,136,17708574959441313792,"attentional-mouselab",7,271800,7
"228","mouselab","False","[]","[[4, 4, 4, 5, 5], [5, 9, 6, 4, 5], [5, 10, 5, 5, 4], [4, 4, 3, 3, 2], [4, 7, 7, 2, 4]]","[[3, 3, 3, 3, 3], [3, 1, 1, 3, 3], [3, 1, 3, 3, 3], [3, 3, 3, 3, 3], [1, 1, 3, 1, 3]]","[3, 4, 2, 16, 5]",20,4,1,0.056,0.056,0,"[]",0,"greedy",5,5,5600,0,167,167,1823415181859538944,"attentional-mouselab",8,281700,7
"229","mouselab","False","[]","[[4, 4, 5, 7, 4], [8, 5, 6, 8, 6], [9, 2, 3, 6, 5], [6, 7, 6, 6, 5], [7, 7, 0, 2, 6]]","[[3, 3, 3, 3, 3], [3, 3, 3, 1, 3], [3, 3, 3, 3, 3], [1, 1, 3, 3, 3], [1, 3, 1, 3, 1]]","[3, 10, 6, 2, 9]",14,5,0,0.074,0.074,0,"[]",0,"random",5,5,4500,0,221,221,13186851384954365952,"attentional-mouselab",9,290200,7
"230","mouselab","False","[]","[[7, 5, 6, 3, 3], [2, 5, 3, 3, 5], [9, 6, 4, 3, 5], [6, 9, 6, 3, 4], [4, 7, 8, 3, 7]]","[[1, 3, 3, 3, 3], [1, 1, 3, 3, 3], [3, 1, 3, 3, 3], [3, 1, 3, 3, 3], [3, 1, 3, 3, 3]]","[2, 2, 13, 2, 11]",24,6,3,0.03,0.03,0,"[]",0,"greedy",5,5,3600,0,90,90,130123370715855152,"attentional-mouselab",10,295700,7
"231","mouselab","False","[]","[[7, 4, 6, 6, 3], [4, 2, 5, 8, 6], [5, 6, 8, 4, 4], [6, 4, 4, 7, 3], [5, 5, 8, 7, 5]]","[[3, 1, 3, 3, 3], [3, 1, 3, 3, 3], [3, 3, 3, 3, 3], [3, 3, 3, 3, 1], [3, 1, 1, 1, 3]]","[8, 12, 4, 3, 3]",16,7,4,0.045,0.045,0,"[]",0,"random",5,5,2000,0,136,136,2744496789902674432,"attentional-mouselab",11,299500,7
"232","mouselab","False","[]","[[4, 3, 4, 3, 7], [2, 6, 8, 8, 6], [7, 4, 6, 5, 6], [7, 4, 3, 7, 4], [6, 4, 8, 8, 5]]","[[3, 3, 3, 3, 3], [1, 3, 1, 1, 3], [3, 1, 3, 3, 3], [3, 3, 3, 1, 3], [1, 3, 3, 3, 3]]","[3, 11, 6, 4, 6]",10,8,1,0.046,0.046,0,"[]",0,"extreme",5,5,3800,0,139,139,6984855784574667776,"attentional-mouselab",12,305400,7
"233","mouselab","False","[]","[[4, 6, 6, 5, 5], [3, 1, 6, 7, 3], [5, 4, 7, 6, 6], [6, 6, 5, 4, 5], [5, 2, 3, 4, 7]]","[[3, 3, 3, 3, 3], [1, 1, 3, 1, 1], [3, 3, 1, 3, 3], [3, 3, 3, 3, 3], [3, 3, 3, 3, 1]]","[7, 9, 1, 9, 4]",14,9,2,0.053,0.053,0,"[]",0,"greedy",5,5,2700,0,160,160,7479804605054199808,"attentional-mouselab",13,309700,7
"234","mouselab","False","[]","[[7, 5, 4, 7, 6], [3, 6, 5, 5, 5], [8, 1, 5, 5, 7], [3, 5, 2, 5, 6], [4, 6, 3, 7, 5]]","[[3, 3, 3, 3, 3], [3, 3, 3, 3, 3], [1, 1, 3, 3, 1], [3, 3, 1, 3, 1], [3, 3, 3, 3, 1]]","[5, 6, 16, 2, 1]",20,10,0,0.064,0.064,0,"[]",0,"extreme",5,5,8200,0,191,191,1135590645018953344,"attentional-mouselab",14,321600,7
"235","mouselab","False","[]","[[7, 5, 5, 7, 9], [3, 4, 7, 8, 4], [1, 6, 5, 4, 7], [4, 7, 9, 8, 5], [7, 2, 4, 5, 6]]","[[3, 3, 3, 3, 1], [3, 3, 3, 1, 3], [3, 3, 1, 3, 1], [3, 3, 3, 1, 3], [3, 3, 1, 3, 3]]","[2, 19, 1, 3, 5]",26,11,3,0.073,0.073,0,"[]",0,"greedy",5,5,2100,0,219,219,16842868129691101184,"attentional-mouselab",15,326200,7
"236","mouselab","False","[]","[[5, 8, 6, 4, 3], [4, 4, 8, 4, 5], [10, 5, 7, 5, 3], [3, 5, 7, 2, 4], [8, 4, 4, 5, 7]]","[[3, 1, 1, 3, 3], [3, 3, 1, 3, 3], [1, 3, 3, 3, 1], [3, 3, 3, 3, 3], [1, 3, 3, 3, 3]]","[3, 4, 12, 8, 3]",16,12,2,0.067,0.067,0,"[]",0,"extreme",5,5,2000,0,202,202,10725774416708450304,"attentional-mouselab",16,331500,7
"237","mouselab","False","[]","[[8, 4, 4, 3, 4], [5, 2, 5, 3, 5], [5, 7, 5, 6, 7], [3, 3, 4, 4, 7], [4, 3, 6, 4, 5]]","[[3, 1, 3, 3, 3], [3, 3, 3, 3, 1], [3, 3, 1, 3, 1], [3, 3, 1, 3, 3], [3, 1, 3, 3, 3]]","[5, 11, 6, 7, 1]",12,13,3,0.039,0.039,0,"[]",0,"random",5,5,2000,0,116,116,10024394006395633664,"attentional-mouselab",17,335300,7
"238","mouselab","False","[]","[[5, 7, 6, 7, 3], [3, 5, 5, 5, 7], [3, 6, 4, 3, 8], [3, 4, 5, 4, 3], [5, 3, 8, 3, 7]]","[[3, 3, 3, 1, 3], [3, 3, 3, 3, 1], [3, 1, 3, 3, 1], [1, 3, 3, 3, 3], [3, 3, 1, 3, 3]]","[10, 8, 1, 7, 4]",14,14,1,0.052,0.052,0,"[]",0,"extreme",5,5,3500,0,156,156,1.2512765156474e+19,"attentional-mouselab",18,340700,7
"239","mouselab","False","[]","[[8, 4, 4, 5, 4], [5, 5, 6, 3, 5], [10, 3, 8, 4, 2], [5, 6, 7, 5, 5], [10, 5, 2, 6, 3]]","[[3, 3, 3, 1, 1], [3, 1, 3, 3, 1], [3, 3, 3, 1, 3], [3, 3, 3, 3, 3], [1, 3, 3, 3, 3]]","[5, 1, 6, 17, 1]",22,15,4,0.042,0.042,0,"[]",0,"random",5,5,3700,0,125,125,7428667766645370880,"attentional-mouselab",19,345700,7
"240","mouselab","False","[]","[[7, 6, 6, 5, 6], [7, 5, 5, 6, 5], [6, 6, 5, 4, 4], [4, 3, 6, 5, 5], [2, 5, 2, 6, 5]]","[[1, 3, 1, 3, 3], [1, 3, 3, 3, 3], [1, 1, 3, 3, 3], [3, 3, 3, 3, 3], [3, 3, 3, 3, 1]]","[2, 6, 8, 12, 2]",16,16,0,0.052,0.052,0,"[]",0,"greedy",5,5,1700,0,156,156,2446345523251941376,"attentional-mouselab",20,349300,7
"241","mouselab","False","[]","[[8, 3, 7, 5, 4], [7, 0, 4, 5, 5], [4, 5, 5, 5, 6], [7, 4, 7, 5, 4], [4, 3, 5, 6, 6]]","[[1, 3, 3, 3, 3], [1, 1, 3, 3, 3], [3, 3, 1, 3, 1], [1, 3, 3, 3, 3], [3, 3, 3, 3, 3]]","[13, 7, 1, 5, 4]",16,17,3,0.051,0.051,0,"[]",0,"greedy",5,5,5100,0,154,154,13392206166918828032,"attentional-mouselab",21,356600,7
"242","mouselab","False","[]","[[2, 2, 6, 6, 5], [7, 9, 4, 3, 5], [6, 5, 3, 6, 6], [7, 7, 4, 3, 8], [7, 5, 5, 6, 2]]","[[3, 3, 3, 3, 3], [3, 1, 3, 3, 1], [1, 3, 3, 3, 3], [1, 3, 3, 3, 3], [1, 1, 3, 3, 3]]","[4, 1, 2, 4, 19]",26,18,4,0.036,0.036,0,"[]",0,"greedy",5,5,3200,0,107,107,3888920501582865920,"attentional-mouselab",22,361100,7
"243","mouselab","False","[]","[[8, 4, 4, 8, 7], [5, 2, 2, 6, 5], [6, 4, 7, 5, 3], [7, 7, 5, 2, 6], [5, 4, 7, 7, 7]]","[[3, 3, 3, 1, 3], [1, 3, 3, 3, 3], [3, 1, 1, 3, 3], [3, 3, 3, 1, 3], [3, 3, 1, 3, 3]]","[9, 6, 8, 6, 1]",10,19,3,0.056,0.056,0,"[]",0,"random",5,5,3300,0,167,167,11110071277813276672,"attentional-mouselab",23,365900,7
"244","mouselab","False","[]","[[5, 7, 4, 6, 7], [7, 6, 6, 8, 7], [7, 4, 4, 7, 2], [5, 5, 2, 5, 2], [5, 6, 7, 8, 5]]","[[3, 3, 1, 3, 3], [3, 3, 3, 1, 3], [3, 3, 3, 3, 1], [3, 3, 1, 3, 3], [3, 3, 1, 1, 3]]","[4, 7, 11, 3, 5]",12,20,1,0.053,0.053,0,"[]",0,"extreme",5,5,2700,0,159,159,17632620382709854208,"attentional-mouselab",24,370600,7
"245","mouselab","False","[]","[[3, 2, 7, 3, 5], [3, 5, 6, 6, 6], [5, 4, 6, 6, 5], [4, 4, 5, 3, 7], [5, 6, 3, 8, 5]]","[[3, 3, 1, 3, 3], [1, 3, 3, 1, 3], [3, 3, 3, 3, 3], [1, 3, 3, 3, 1], [3, 3, 3, 1, 3]]","[7, 2, 4, 15, 2]",20,21,2,0.055,0.055,0,"[]",0,"greedy",5,5,2600,0,166,166,8180193731649778688,"attentional-mouselab",25,374500,7
"246","mouselab","False","[]","[[7, 5, 5, 7, 5], [1, 5, 7, 6, 9], [6, 7, 3, 3, 3], [3, 4, 5, 6, 3], [3, 8, 2, 5, 8]]","[[3, 3, 3, 3, 3], [1, 3, 3, 3, 1], [3, 1, 1, 3, 3], [3, 3, 3, 1, 3], [3, 1, 3, 3, 3]]","[7, 7, 8, 5, 3]",8,22,0,0.043,0.043,0,"[]",0,"extreme",5,5,1200,0,128,128,11538470987502356480,"attentional-mouselab",26,377600,7
"247","mouselab","False","[]","[[7, 4, 8, 6, 7], [4, 7, 7, 7, 6], [5, 7, 5, 5, 6], [8, 7, 7, 3, 2], [2, 5, 6, 3, 7]]","[[3, 1, 3, 3, 3], [1, 3, 3, 3, 3], [3, 3, 3, 1, 3], [1, 3, 3, 1, 3], [3, 3, 3, 3, 1]]","[3, 2, 3, 2, 20]",28,23,3,0.038,0.038,0,"[]",0,"random",5,5,2200,0,113,113,3228134042053132800,"attentional-mouselab",27,380900,7
"248","mouselab","False","[]","[[4, 4, 7, 6, 2], [6, 5, 8, 5, 4], [7, 7, 5, 5, 5], [3, 5, 5, 6, 5], [5, 6, 7, 5, 7]]","[[1, 1, 3, 3, 3], [1, 3, 3, 3, 3], [3, 1, 3, 3, 3], [3, 3, 3, 3, 3], [3, 1, 3, 3, 1]]","[1, 3, 2, 8, 16]",24,24,1,0.056,0.056,0,"[]",0,"random",5,5,2700,0,169,169,1.3421601818791e+19,"attentional-mouselab",28,385100,7
"249","mouselab","False","[]","[[4, 1, 6, 5, 7], [5, 3, 3, 4, 3], [7, 1, 4, 3, 4], [4, 6, 9, 8, 3], [3, 6, 3, 9, 4]]","[[3, 1, 3, 3, 3], [1, 3, 3, 3, 3], [3, 1, 3, 3, 3], [3, 1, 1, 3, 3], [3, 3, 3, 1, 3]]","[7, 7, 4, 11, 1]",14,25,0,0.046,0.046,0,"[]",0,"extreme",5,5,2900,0,138,138,8277407663224224768,"attentional-mouselab",29,389300,7
"250","mouselab","False","[]","[[5, 6, 4, 3, 3], [3, 5, 7, 4, 5], [5, 5, 4, 0, 2], [9, 5, 6, 5, 8], [5, 2, 8, 5, 5]]","[[1, 3, 3, 3, 3], [3, 3, 3, 3, 3], [3, 1, 1, 1, 3], [3, 3, 3, 1, 3], [3, 1, 3, 3, 3]]","[13, 2, 6, 5, 4]",14,26,3,0.031,0.031,0,"[]",0,"random",5,5,1800,0,92,92,11515651415333316608,"attentional-mouselab",30,392600,7
"251","mouselab","False","[]","[[6, 7, 4, 2, 4], [4, 5, 6, 0, 1], [4, 5, 2, 8, 4], [6, 3, 7, 9, 2], [3, 5, 7, 4, 8]]","[[3, 3, 3, 3, 3], [3, 3, 3, 1, 1], [1, 1, 1, 3, 3], [3, 3, 3, 1, 3], [3, 3, 3, 3, 3]]","[2, 7, 3, 13, 5]",16,27,4,0.031,0.031,0,"[]",0,"extreme",5,5,900,0,93,93,17399513684171495424,"attentional-mouselab",31,394600,7
"252","mouselab","False","[]","[[4, 2, 5, 4, 3], [6, 5, 5, 4, 4], [3, 3, 7, 6, 6], [4, 3, 5, 6, 4], [5, 6, 5, 3, 0]]","[[3, 1, 3, 3, 3], [3, 3, 3, 3, 3], [3, 1, 1, 3, 3], [3, 1, 3, 3, 3], [3, 1, 3, 1, 3]]","[21, 4, 2, 1, 2]",30,28,1,0.028,0.028,0,"[]",0,"greedy",5,5,1300,0,83,83,4866816826888925184,"attentional-mouselab",32,397300,7
"253","mouselab","False","[]","[[1, 4, 5, 4, 3], [3, 4, 3, 4, 5], [5, 2, 5, 8, 5], [5, 3, 3, 4, 4], [6, 7, 5, 7, 3]]","[[3, 3, 3, 1, 1], [1, 3, 1, 3, 3], [3, 3, 3, 3, 1], [3, 3, 3, 3, 1], [3, 3, 3, 3, 3]]","[2, 10, 7, 5, 6]",10,29,2,0.04,0.04,0,"[]",0,"random",5,5,1100,0,120,120,4881895452231325696,"attentional-mouselab",33,399600,7
"254","mouselab","False","[]","[[5, 1, 4, 4, 5], [5, 1, 6, 1, 5], [5, 6, 2, 4, 5], [5, 8, 7, 5, 3], [7, 6, 1, 5, 2]]","[[3, 1, 3, 3, 3], [1, 1, 3, 1, 3], [3, 3, 3, 3, 3], [3, 3, 3, 3, 3], [3, 3, 1, 1, 3]]","[1, 4, 11, 11, 3]",20,30,0,0.052,0.052,0,"[]",0,"extreme",5,5,800,0,156,156,12141938702197121024,"attentional-mouselab",34,402000,7
"255","mouselab","False","[]","[[2, 6, 6, 6, 3], [4, 7, 3, 5, 2], [6, 4, 6, 6, 7], [2, 5, 6, 5, 6], [5, 3, 5, 4, 4]]","[[1, 3, 3, 3, 3], [3, 3, 3, 3, 1], [3, 3, 3, 3, 3], [1, 3, 3, 1, 1], [3, 3, 3, 1, 3]]","[10, 2, 8, 3, 7]",14,31,3,0.054,0.054,0,"[]",0,"random",5,5,3400,0,161,161,15930529235757496320,"attentional-mouselab",35,406600,7
"256","mouselab","False","[]","[[4, 7, 4, 5, 7], [7, 3, 6, 7, 8], [7, 5, 6, 8, 4], [4, 7, 6, 6, 4], [3, 6, 6, 7, 5]]","[[1, 3, 3, 3, 3], [3, 3, 3, 1, 3], [3, 1, 3, 1, 3], [3, 3, 3, 3, 3], [3, 1, 3, 1, 3]]","[4, 2, 19, 3, 2]",26,32,4,0.047,0.047,0,"[]",0,"greedy",5,5,1800,0,142,142,585486770995025408,"attentional-mouselab",36,409900,7
"257","mouselab","True","[17, 4, 8, 5, 5, 5, 3, 12, 2, 16, 16, 16, 11, 11, 11, 19, 19, 19, 1, 1, 1, 0, 0, 0, 15, 15, 15, 15, 20, 20, 20, 21, 21, 21, 22, 22, 22, 6, 6, 6, 10, 10, 10, 18, 18, 18, 18, 14, 14, 14, 14, 13, 13, 13, 7, 7, 7, 23, 23, 23, 24, 24, 24, 9, 9, 9, 10, 21]","[[7, 6, 4, 5, 7], [5, 6, 4, 4, 8], [7, 5, 6, 6, 5], [3, 4, 5, 6, 6], [4, 8, 9, 4, 5]]","[[3, 3, 1, 1, 1], [3, 3, 3, 1, 3], [3, 3, 1, 3, 3], [3, 3, 1, 3, 3], [3, 3, 3, 3, 3]]","[2, 11, 5, 8, 4]",14,1,0,0.048,0.027,0.021,"[17, 4, 8, 5, 3, 12, 2, 16, 11, 19, 1, 0, 15, 20, 21, 22, 6, 10, 18, 14, 13, 7, 23, 24, 9]",25,"random",5,5,85429,63,144,81,6981753284417091584,"attentional-mouselab",4,221560,8
"258","mouselab","True","[]","[[7, 5, 5, 4, 4], [5, 4, 3, 4, 7], [6, 6, 7, 4, 3], [5, 8, 6, 3, 7], [6, 3, 4, 4, 7]]","[[3, 1, 1, 3, 3], [1, 3, 3, 3, 1], [3, 3, 3, 3, 3], [3, 1, 3, 3, 3], [3, 3, 3, 1, 3]]","[5, 7, 14, 2, 2]",18,2,1,0.053,0.053,0,"[]",0,"random",5,5,9470,0,159,159,11378571874375176192,"attentional-mouselab",5,271992,8
"259","mouselab","False","[14, 19, 17, 18, 0, 1]","[[4, 7, 4, 7, 3], [9, 7, 3, 8, 5], [5, 8, 5, 7, 8], [6, 5, 2, 6, 4], [5, 6, 5, 5, 7]]","[[1, 1, 3, 3, 3], [3, 3, 3, 3, 3], [3, 3, 3, 3, 1], [3, 3, 1, 1, 1], [3, 3, 3, 3, 3]]","[1, 2, 8, 13, 6]",18,3,4,0.057,0.055,0.002,"[14, 19, 17, 18, 0, 1]",6,"random",5,5,10093,6,171,165,2343779814530073600,"attentional-mouselab",7,287695,8
"260","mouselab","False","[17, 7, 16, 1, 9]","[[6, 7, 3, 4, 7], [2, 5, 4, 1, 9], [2, 6, 8, 7, 3], [3, 1, 6, 5, 7], [7, 5, 6, 4, 5]]","[[3, 1, 3, 3, 3], [3, 3, 1, 1, 1], [3, 3, 3, 3, 3], [3, 1, 1, 3, 3], [3, 3, 3, 3, 3]]","[2, 9, 2, 16, 1]",26,4,4,0.073,0.0713333333333333,0.00166666666666667,"[17, 7, 16, 1, 9]",5,"extreme",5,5,7390,5,218,213,11705287782585769984,"attentional-mouselab",8,299911,8
"261","mouselab","False","[22, 12]","[[5, 4, 4, 5, 5], [5, 5, 5, 6, 7], [2, 7, 9, 7, 5], [3, 5, 7, 6, 6], [7, 5, 6, 8, 6]]","[[3, 3, 3, 3, 1], [3, 3, 3, 3, 3], [1, 3, 1, 3, 3], [3, 1, 3, 3, 3], [3, 3, 1, 1, 3]]","[10, 6, 2, 11, 1]",18,5,2,0.057,0.0563333333333333,0.000666666666666667,"[22, 12]",2,"extreme",5,5,4350,2,171,169,6383676202672848896,"attentional-mouselab",9,307631,8
"262","mouselab","False","[5, 24, 8, 2, 15, 12]","[[6, 5, 5, 3, 2], [4, 6, 1, 6, 3], [8, 4, 5, 5, 4], [7, 6, 5, 6, 4], [6, 4, 6, 4, 7]]","[[3, 3, 1, 3, 3], [1, 3, 3, 1, 3], [3, 3, 1, 3, 3], [1, 3, 3, 3, 3], [3, 3, 3, 3, 1]]","[6, 16, 2, 3, 3]",20,6,2,0.03,0.028,0.002,"[5, 24, 8, 2, 15, 12]",6,"random",5,5,10022,6,89,83,13619690330254159872,"attentional-mouselab",10,322759,8
"263","mouselab","False","[3, 7, 18, 8, 10, 6]","[[6, 5, 5, 7, 5], [3, 2, 3, 5, 4], [4, 8, 5, 5, 8], [4, 2, 4, 7, 6], [1, 5, 5, 6, 3]]","[[3, 3, 3, 1, 3], [3, 1, 1, 1, 3], [1, 3, 3, 3, 3], [3, 3, 3, 1, 3], [3, 3, 3, 3, 3]]","[1, 15, 11, 2, 1]",28,7,1,0.044,0.042,0.002,"[3, 7, 18, 8, 10, 6]",6,"random",5,5,7445,6,132,126,14574695322856423424,"attentional-mouselab",11,334519,8
"264","mouselab","False","[13, 13, 13, 21, 6, 19, 4, 9]","[[3, 5, 4, 3, 4], [6, 3, 4, 3, 7], [5, 6, 6, 3, 5], [3, 6, 6, 8, 7], [6, 2, 2, 4, 5]]","[[3, 3, 3, 3, 3], [3, 1, 3, 3, 1], [1, 3, 3, 3, 3], [3, 3, 3, 3, 1], [3, 1, 1, 3, 3]]","[3, 7, 6, 13, 1]",16,8,4,0.062,0.0593333333333333,0.00266666666666667,"[13, 21, 6, 19, 9]",5,"greedy",5,5,11799,8,187,179,13742327110394408960,"attentional-mouselab",12,349415,8
"265","mouselab","False","[5, 8, 4, 7, 19]","[[3, 5, 6, 3, 6], [0, 6, 4, 2, 5], [4, 6, 4, 6, 3], [4, 3, 3, 3, 7], [6, 2, 4, 4, 4]]","[[1, 3, 3, 3, 1], [1, 3, 1, 1, 3], [3, 3, 3, 3, 3], [3, 3, 3, 3, 1], [3, 3, 3, 3, 3]]","[4, 4, 15, 6, 1]",18,9,4,0.045,0.0433333333333333,0.00166666666666667,"[5, 8, 4, 7, 19]",5,"greedy",5,5,7486,5,135,130,1241159490087320320,"attentional-mouselab",13,360647,8
"266","mouselab","False","[22, 12, 19]","[[5, 5, 5, 7, 1], [4, 3, 6, 5, 4], [9, 7, 7, 6, 5], [4, 4, 6, 5, 6], [3, 8, 6, 7, 5]]","[[3, 3, 3, 1, 3], [3, 3, 3, 3, 3], [3, 3, 1, 3, 3], [3, 3, 1, 3, 1], [3, 3, 1, 1, 3]]","[6, 2, 8, 2, 12]",16,10,3,0.065,0.064,0.001,"[22, 12, 19]",3,"greedy",5,5,3975,3,194,191,7712862790423016448,"attentional-mouselab",14,371783,8
"267","mouselab","False","[14, 24, 9]","[[6, 5, 6, 5, 3], [5, 6, 4, 5, 6], [5, 7, 4, 3, 8], [4, 4, 7, 7, 4], [5, 5, 3, 7, 8]]","[[3, 3, 3, 3, 3], [3, 1, 3, 3, 1], [3, 3, 3, 3, 1], [3, 3, 3, 3, 3], [3, 1, 3, 1, 1]]","[11, 5, 6, 3, 5]",10,11,4,0.054,0.053,0.001,"[14, 24, 9]",3,"extreme",5,5,3454,3,163,160,12551490197937866752,"attentional-mouselab",15,379527,8
"268","mouselab","False","[23, 1, 20, 3]","[[3, 0, 5, 1, 5], [8, 6, 3, 6, 5], [7, 6, 5, 4, 9], [5, 5, 6, 2, 6], [9, 8, 2, 7, 3]]","[[3, 1, 3, 1, 3], [3, 3, 3, 3, 3], [3, 3, 3, 3, 1], [3, 3, 3, 3, 3], [1, 3, 3, 1, 1]]","[6, 5, 10, 5, 4]",8,12,0,0.063,0.0616666666666667,0.00133333333333333,"[23, 1, 20, 3]",4,"extreme",5,5,6007,4,189,185,5726204394876771328,"attentional-mouselab",16,387287,8
"269","mouselab","False","[18, 24, 2, 5, 13, 17, 11, 11, 11, 9, 9, 9, 19, 19, 19]","[[4, 5, 2, 7, 6], [7, 3, 7, 8, 7], [6, 6, 5, 2, 7], [5, 4, 4, 6, 6], [5, 4, 7, 5, 8]]","[[3, 3, 1, 3, 3], [1, 3, 3, 3, 3], [3, 3, 3, 1, 3], [3, 3, 1, 1, 3], [3, 3, 3, 3, 1]]","[16, 2, 7, 2, 3]",22,13,4,0.065,0.06,0.005,"[18, 24, 2, 5, 13, 17, 11, 9, 19]",9,"extreme",5,5,16334,15,195,180,17395514203875409920,"attentional-mouselab",17,406895,8
"270","mouselab","False","[14, 14, 14, 6, 3, 2, 8, 20]","[[4, 6, 5, 5, 4], [7, 1, 5, 5, 5], [3, 4, 8, 6, 7], [7, 6, 1, 7, 3], [7, 8, 5, 6, 5]]","[[3, 3, 1, 1, 3], [3, 1, 1, 1, 3], [3, 3, 3, 3, 3], [3, 3, 3, 3, 3], [1, 3, 3, 3, 3]]","[4, 12, 5, 4, 5]",12,14,4,0.049,0.0463333333333333,0.00266666666666667,"[14, 6, 3, 2, 8, 20]",6,"random",5,5,8134,8,148,140,17131601416869191680,"attentional-mouselab",18,416583,8
"271","mouselab","False","[13, 12, 20]","[[5, 3, 9, 7, 7], [6, 5, 4, 5, 3], [5, 7, 3, 7, 6], [4, 5, 1, 6, 0], [2, 5, 3, 5, 6]]","[[3, 3, 3, 1, 3], [3, 3, 1, 3, 3], [3, 3, 1, 1, 3], [3, 3, 3, 1, 3], [1, 3, 3, 3, 3]]","[1, 23, 3, 2, 1]",34,15,3,0.053,0.052,0.001,"[13, 12, 20]",3,"greedy",5,5,3446,3,160,157,13659466325707943936,"attentional-mouselab",19,421592,8
"272","mouselab","False","[8, 19, 17, 10, 3, 7]","[[3, 4, 5, 6, 5], [6, 2, 8, 6, 6], [7, 6, 5, 5, 2], [4, 6, 6, 6, 5], [5, 4, 5, 5, 6]]","[[3, 3, 3, 1, 3], [3, 3, 1, 1, 3], [1, 3, 3, 3, 3], [3, 3, 1, 3, 1], [3, 3, 3, 3, 3]]","[1, 6, 10, 5, 8]",12,16,2,0.058,0.056,0.002,"[8, 19, 17, 10, 3, 7]",6,"greedy",5,5,8270,6,173,167,524811595339828096,"attentional-mouselab",20,431199,8
"273","mouselab","False","[16, 7, 13, 4, 17, 10]","[[5, 3, 6, 5, 6], [9, 3, 6, 3, 7], [5, 4, 5, 5, 3], [3, 6, 7, 6, 3], [6, 5, 4, 6, 6]]","[[3, 3, 3, 3, 1], [3, 3, 1, 3, 3], [1, 3, 3, 1, 3], [3, 1, 1, 3, 3], [3, 3, 3, 3, 3]]","[5, 12, 2, 2, 9]",18,17,2,0.054,0.052,0.002,"[16, 7, 13, 4, 17, 10]",6,"random",5,5,5222,6,162,156,10152153179664687104,"attentional-mouselab",21,437407,8
"274","mouselab","False","[10, 1, 9, 0, 15]","[[5, 6, 6, 6, 4], [6, 4, 7, 5, 7], [7, 5, 3, 1, 7], [9, 2, 2, 4, 6], [5, 3, 6, 9, 6]]","[[1, 1, 3, 3, 3], [3, 1, 3, 3, 1], [1, 3, 3, 3, 3], [1, 3, 3, 3, 3], [3, 3, 3, 3, 3]]","[6, 9, 4, 2, 9]",12,18,0,0.058,0.0563333333333333,0.00166666666666667,"[10, 1, 9, 0, 15]",5,"greedy",5,5,6439,5,175,170,9329850228999278592,"attentional-mouselab",22,445472,8
"275","mouselab","False","[16]","[[5, 6, 3, 5, 7], [4, 7, 5, 5, 4], [2, 3, 4, 3, 6], [4, 9, 5, 6, 10], [7, 7, 5, 3, 5]]","[[3, 3, 3, 3, 3], [3, 3, 3, 3, 3], [1, 1, 3, 3, 3], [3, 1, 3, 3, 1], [3, 1, 1, 3, 3]]","[10, 2, 13, 3, 2]",22,19,1,0.051,0.0506666666666667,0.000333333333333333,"[16]",1,"extreme",5,5,1989,1,154,153,7014224210406776832,"attentional-mouselab",23,452921,8
"276","mouselab","False","[18, 13]","[[4, 4, 6, 7, 3], [4, 6, 2, 6, 4], [3, 4, 8, 7, 5], [5, 8, 6, 6, 7], [8, 3, 7, 5, 5]]","[[3, 3, 3, 1, 3], [3, 3, 3, 3, 3], [3, 3, 3, 1, 3], [1, 3, 3, 1, 3], [1, 3, 3, 1, 3]]","[1, 2, 4, 2, 21]",30,20,3,0.055,0.0543333333333333,0.000666666666666667,"[18, 13]",2,"greedy",5,5,4077,2,164,162,1025504414234059264,"attentional-mouselab",24,458224,8
"277","mouselab","False","[12, 12, 12, 19, 10, 8, 8, 8, 3, 2, 1]","[[7, 4, 4, 6, 8], [7, 1, 8, 4, 6], [7, 6, 6, 4, 3], [6, 4, 7, 2, 7], [4, 6, 4, 8, 3]]","[[3, 1, 1, 1, 3], [3, 3, 3, 1, 3], [1, 3, 3, 3, 3], [3, 3, 3, 3, 1], [3, 3, 3, 3, 3]]","[9, 3, 7, 5, 6]",8,21,4,0.055,0.052,0.003,"[12, 19, 10, 8, 3, 2, 1]",7,"random",5,5,14807,9,164,155,9401549732085469184,"attentional-mouselab",25,474024,8
