"","type","is_practice","click_values","payoff_matrix","cost_matrix","weights","weights_deviation","trial_num","selected_option","gross_earnings","net_earnings","click_cost","uncovered_values","num_values_revealed","nudge_type","num_baskets","num_features","reaction_time","points_click_cost","points_action_utility","points_metalevel_reward","problem_id","trial_type","trial_index","time_elapsed","participant_id"
"1","mouselab","True","[15, 10, 11, 15, 15, 11, 11, 5, 20, 0, 6, 1, 2, 2, 2, 16, 21, 22, 17, 12, 7, 3, 8, 13, 18, 23, 24, 19, 14, 9, 4]","[[5, 7, 3, 3, 7], [6, 7, 8, 4, 4], [6, 5, 5, 6, 6], [8, 8, 4, 5, 1], [8, 6, 4, 4, 7]]","[[1, 1, 3, 1, 1], [1, 1, 1, 1, 1], [1, 3, 1, 1, 1], [3, 1, 1, 1, 1], [1, 1, 1, 1, 1]]","[2, 9, 11, 7, 1]",18,1,0,0.065,0.0546666666666667,0.0103333333333333,"[10, 15, 11, 5, 20, 0, 6, 1, 2, 16, 21, 22, 17, 12, 7, 3, 8, 13, 18, 23, 24, 19, 14, 9, 4]",25,"none",5,5,57174,31,194,163,5156190167806539776,"attentional-mouselab",4,197124,0
"2","mouselab","True","[0, 5, 5, 5, 10, 10, 15, 20]","[[5, 8, 5, 8, 4], [5, 3, 6, 6, 3], [6, 3, 5, 5, 6], [9, 4, 6, 3, 7], [5, 4, 4, 2, 6]]","[[1, 3, 1, 1, 1], [3, 1, 1, 1, 1], [1, 1, 1, 1, 1], [1, 1, 3, 1, 1], [1, 1, 1, 1, 1]]","[1, 6, 8, 14, 1]",20,2,0,0.071,0.0686666666666667,0.00233333333333333,"[0, 5, 10, 15, 20]",5,"none",5,5,9793,7,214,207,13634728080477878272,"attentional-mouselab",5,209591,0
"3","mouselab","False","[0, 5, 10, 15, 15, 20, 20, 20]","[[5, 4, 5, 3, 4], [5, 7, 4, 4, 5], [9, 5, 7, 4, 8], [8, 6, 6, 3, 5], [7, 3, 6, 4, 5]]","[[1, 1, 1, 1, 1], [1, 3, 1, 1, 1], [1, 1, 3, 1, 3], [1, 3, 1, 1, 3], [3, 1, 1, 1, 1]]","[1, 8, 11, 7, 3]",16,3,0,0.074,0.0716666666666667,0.00233333333333333,"[0, 5, 10, 15, 20]",5,"greedy",5,5,10252,7,221,214,4513856228601265664,"attentional-mouselab",7,227674,0
"4","mouselab","False","[10, 11, 12, 13, 14, 12, 12]","[[8, 4, 6, 4, 8], [3, 8, 6, 3, 4], [7, 4, 7, 5, 6], [5, 5, 6, 3, 4], [6, 5, 6, 4, 4]]","[[1, 1, 1, 1, 1], [3, 1, 1, 1, 1], [1, 1, 3, 1, 1], [1, 1, 1, 1, 3], [1, 1, 1, 1, 1]]","[2, 5, 19, 1, 3]",26,4,0,0.062,0.0596666666666667,0.00233333333333333,"[10, 11, 13, 14, 12]",5,"none",5,5,10124,7,187,180,7516596987479867392,"attentional-mouselab",8,239994,0
"5","mouselab","False","[5, 10, 15, 20, 0, 3, 8, 13, 18, 23, 23, 23, 17, 17, 17, 12, 7, 2, 2, 2, 22]","[[2, 7, 6, 6, 4], [7, 2, 3, 6, 4], [3, 5, 6, 5, 2], [3, 6, 5, 7, 1], [6, 8, 4, 3, 4]]","[[1, 1, 3, 1, 1], [1, 1, 1, 1, 3], [1, 1, 1, 1, 1], [1, 1, 3, 1, 3], [1, 1, 1, 3, 3]]","[8, 10, 1, 6, 5]",12,5,3,0.057,0.05,0.007,"[5, 10, 15, 20, 0, 3, 8, 13, 18, 23, 17, 12, 7, 2, 22]",15,"greedy",5,5,21166,21,170,149,16360303095735318528,"attentional-mouselab",9,263040,0
"6","mouselab","False","[10, 11, 12, 11, 10, 10, 11, 12, 12, 13, 14]","[[2, 5, 6, 4, 5], [4, 7, 2, 5, 6], [4, 6, 5, 4, 3], [3, 4, 6, 4, 6], [5, 4, 3, 5, 6]]","[[1, 1, 1, 1, 1], [3, 1, 1, 3, 3], [3, 3, 3, 1, 1], [1, 1, 1, 1, 1], [1, 1, 1, 1, 1]]","[4, 8, 12, 2, 4]",16,6,1,0.057,0.0533333333333333,0.00366666666666667,"[10, 11, 12, 13, 14]",5,"greedy",5,5,9503,11,172,161,7413583376789058560,"attentional-mouselab",10,273787,0
"7","mouselab","False","[5, 5, 5, 6, 7, 8, 9]","[[6, 4, 9, 7, 4], [6, 3, 6, 4, 7], [4, 5, 5, 7, 5], [6, 6, 7, 8, 4], [5, 4, 7, 7, 4]]","[[1, 1, 1, 1, 1], [3, 1, 1, 1, 1], [1, 1, 1, 1, 1], [1, 3, 3, 1, 1], [1, 1, 1, 1, 1]]","[1, 18, 5, 1, 5]",24,7,4,0.06,0.0576666666666667,0.00233333333333333,"[5, 6, 7, 8, 9]",5,"none",5,5,7509,7,179,172,10976471575143251968,"attentional-mouselab",11,283099,0
"8","mouselab","False","[15, 16, 17, 18, 19, 16]","[[7, 5, 2, 7, 6], [3, 6, 5, 7, 5], [6, 6, 7, 4, 5], [3, 5, 5, 5, 5], [7, 5, 4, 6, 4]]","[[1, 1, 3, 1, 1], [1, 1, 1, 1, 3], [1, 1, 1, 1, 1], [1, 1, 1, 1, 1], [1, 1, 1, 3, 1]]","[5, 9, 3, 12, 1]",18,8,1,0.054,0.0523333333333333,0.00166666666666667,"[15, 16, 17, 18, 19]",5,"none",5,5,9081,5,162,157,1706449436233678336,"attentional-mouselab",12,293942,0
"9","mouselab","False","[0, 0, 0, 5, 10, 20, 1, 2, 3, 4, 21, 22, 23, 24]","[[5, 6, 5, 5, 5], [4, 5, 4, 3, 2], [3, 7, 5, 6, 5], [5, 6, 4, 8, 5], [4, 4, 4, 4, 2]]","[[3, 1, 1, 1, 1], [1, 1, 1, 1, 1], [1, 3, 1, 3, 1], [3, 1, 3, 1, 3], [1, 1, 1, 1, 1]]","[10, 7, 3, 9, 1]",16,9,1,0.058,0.0533333333333333,0.00466666666666667,"[0, 5, 10, 20, 1, 2, 3, 4, 21, 22, 23, 24]",12,"greedy",5,5,14698,14,174,160,5290170900005425152,"attentional-mouselab",13,310545,0
"10","mouselab","False","[21, 20, 22, 23, 24, 16, 17, 11, 11, 11, 12]","[[7, 2, 7, 5, 4], [7, 5, 7, 5, 9], [1, 7, 5, 3, 6], [9, 3, 3, 3, 8], [0, 6, 6, 2, 6]]","[[1, 1, 1, 3, 3], [3, 1, 3, 1, 1], [1, 3, 1, 1, 1], [3, 1, 1, 1, 1], [1, 1, 1, 1, 1]]","[4, 4, 7, 3, 12]",14,10,1,0.053,0.0493333333333333,0.00366666666666667,"[21, 20, 22, 23, 24, 16, 17, 11, 12]",9,"greedy",5,5,12764,11,158,147,11331909641293115392,"attentional-mouselab",14,325320,0
"11","mouselab","False","[15, 10, 5, 5, 5, 0, 20]","[[5, 5, 5, 2, 5], [7, 2, 7, 5, 4], [5, 6, 5, 7, 5], [5, 5, 5, 4, 5], [3, 7, 5, 4, 4]]","[[1, 1, 1, 1, 1], [3, 1, 1, 1, 3], [1, 3, 1, 3, 1], [1, 1, 1, 3, 1], [1, 1, 3, 1, 1]]","[4, 12, 1, 12, 1]",24,11,0,0.057,0.0546666666666667,0.00233333333333333,"[15, 10, 5, 0, 20]",5,"greedy",5,5,11152,7,172,165,10267111802407151616,"attentional-mouselab",15,337594,0
"12","mouselab","False","[20, 21, 22, 23, 24, 0, 6, 2, 3, 4]","[[9, 4, 6, 8, 5], [6, 6, 6, 5, 5], [5, 6, 7, 6, 3], [3, 4, 3, 4, 5], [5, 5, 6, 5, 5]]","[[1, 3, 1, 1, 1], [1, 1, 1, 1, 1], [1, 3, 1, 1, 3], [1, 1, 1, 1, 1], [1, 1, 1, 1, 1]]","[3, 2, 6, 2, 17]",22,12,0,0.053,0.0496666666666667,0.00333333333333333,"[20, 21, 22, 23, 24, 0, 6, 2, 3, 4]",10,"none",5,5,9484,10,160,150,16613703591520948224,"attentional-mouselab",16,348959,0
"13","mouselab","False","[10, 5, 20, 0]","[[4, 7, 6, 4, 7], [3, 7, 3, 6, 3], [7, 6, 6, 7, 5], [5, 3, 3, 4, 7], [6, 6, 4, 5, 5]]","[[1, 1, 1, 1, 1], [1, 1, 1, 1, 1], [1, 1, 1, 1, 3], [1, 3, 1, 1, 3], [1, 1, 1, 1, 1]]","[2, 10, 12, 1, 5]",20,13,0,0.052,0.0506666666666667,0.00133333333333333,"[10, 5, 20, 0]",4,"none",5,5,6519,4,157,153,13092019484476329984,"attentional-mouselab",17,357104,0
"14","mouselab","False","[20, 10, 5, 0]","[[3, 8, 6, 7, 6], [5, 3, 3, 4, 4], [4, 3, 6, 6, 6], [4, 6, 6, 4, 5], [4, 5, 5, 5, 6]]","[[1, 1, 1, 1, 1], [1, 1, 1, 1, 1], [1, 1, 1, 1, 1], [3, 1, 1, 3, 3], [1, 1, 1, 1, 1]]","[3, 9, 7, 1, 10]",16,14,0,0.042,0.0406666666666667,0.00133333333333333,"[20, 10, 5, 0]",4,"none",5,5,4567,4,126,122,15249651444658200576,"attentional-mouselab",18,362937,0
"15","mouselab","False","[16, 11, 6, 1, 21, 1]","[[5, 7, 8, 5, 1], [4, 4, 4, 5, 4], [4, 7, 3, 5, 3], [5, 6, 4, 4, 7], [5, 5, 1, 8, 6]]","[[1, 3, 1, 1, 1], [1, 1, 1, 3, 1], [1, 1, 1, 1, 1], [1, 1, 3, 1, 1], [1, 1, 1, 1, 1]]","[5, 7, 3, 9, 6]",8,15,1,0.056,0.054,0.002,"[16, 11, 6, 21]",4,"none",5,5,7672,6,168,162,14783311124635496448,"attentional-mouselab",19,373418,0
"16","mouselab","False","[15, 16, 17, 18, 19]","[[2, 6, 6, 4, 3], [5, 4, 6, 5, 4], [4, 4, 6, 5, 5], [6, 3, 1, 7, 2], [5, 4, 3, 3, 8]]","[[3, 3, 1, 1, 1], [3, 1, 1, 1, 1], [1, 1, 1, 1, 1], [1, 1, 1, 1, 1], [1, 1, 1, 1, 1]]","[4, 5, 8, 12, 1]",16,16,3,0.056,0.0543333333333333,0.00166666666666667,"[15, 16, 17, 18, 19]",5,"none",5,5,4915,5,168,163,13447729364316348416,"attentional-mouselab",20,379887,0
"17","mouselab","False","[0, 0, 0, 10, 20, 1, 3, 13, 11, 16]","[[8, 5, 5, 3, 6], [3, 7, 4, 6, 7], [5, 7, 5, 5, 5], [5, 4, 4, 5, 9], [4, 7, 5, 4, 4]]","[[3, 1, 3, 1, 3], [1, 1, 1, 1, 1], [1, 1, 1, 1, 3], [1, 1, 3, 1, 1], [1, 3, 1, 1, 1]]","[10, 3, 3, 8, 6]",12,17,0,0.056,0.0526666666666667,0.00333333333333333,"[0, 10, 20, 1, 3, 13, 11, 16]",8,"greedy",5,5,15801,10,168,158,5384466900031566848,"attentional-mouselab",21,396721,0
"18","mouselab","False","[5, 0, 0, 0, 3, 13, 18, 8, 14, 9]","[[7, 6, 6, 7, 5], [3, 0, 3, 3, 2], [4, 6, 6, 4, 6], [5, 8, 4, 6, 5], [5, 4, 9, 5, 2]]","[[3, 3, 1, 1, 3], [1, 1, 3, 1, 1], [1, 1, 1, 1, 1], [1, 1, 1, 1, 1], [1, 1, 1, 3, 3]]","[5, 9, 5, 9, 2]",12,18,3,0.049,0.0456666666666667,0.00333333333333333,"[5, 0, 3, 13, 18, 8, 14, 9]",8,"greedy",5,5,13894,10,146,136,8598438109147260928,"attentional-mouselab",22,412169,0
"19","mouselab","False","[15, 16, 17, 18, 19, 3, 23, 11, 1, 21]","[[3, 4, 2, 4, 6], [9, 2, 6, 10, 5], [2, 3, 6, 4, 9], [2, 5, 3, 6, 2], [5, 5, 3, 4, 4]]","[[3, 1, 1, 1, 3], [1, 1, 1, 3, 1], [1, 1, 1, 1, 1], [1, 1, 1, 1, 1], [1, 1, 1, 1, 1]]","[3, 7, 4, 13, 3]",16,19,0,0.04,0.0366666666666667,0.00333333333333333,"[15, 16, 17, 18, 19, 3, 23, 11, 1, 21]",10,"none",5,5,12689,10,121,111,3719596404275355136,"attentional-mouselab",23,426547,0
"20","mouselab","False","[0]","[[3, 2, 5, 6, 3], [8, 4, 3, 5, 3], [2, 4, 6, 7, 6], [3, 4, 4, 9, 6], [4, 2, 6, 8, 6]]","[[1, 1, 1, 1, 1], [1, 1, 1, 1, 1], [1, 1, 1, 3, 1], [1, 1, 1, 1, 1], [3, 1, 1, 1, 3]]","[15, 4, 5, 2, 4]",18,20,0,0.036,0.0356666666666667,0.000333333333333333,"[0]",1,"none",5,5,4079,1,109,108,1200433380400081920,"attentional-mouselab",24,432580,0
"21","mouselab","False","[0, 20]","[[9, 3, 3, 2, 5], [0, 6, 3, 3, 5], [6, 7, 5, 3, 3], [4, 4, 4, 5, 3], [6, 3, 5, 4, 5]]","[[1, 1, 1, 1, 1], [1, 3, 1, 1, 1], [1, 1, 1, 1, 1], [1, 1, 3, 1, 1], [1, 1, 1, 3, 1]]","[10, 3, 3, 5, 9]",14,21,0,0.061,0.0603333333333333,0.000666666666666667,"[0, 20]",2,"none",5,5,4039,2,182,180,1277610343591355392,"attentional-mouselab",25,438668,0
"22","mouselab","False","[21, 23, 8, 3]","[[5, 5, 8, 4, 5], [9, 5, 4, 5, 3], [8, 4, 6, 7, 6], [3, 7, 3, 10, 3], [4, 5, 4, 7, 7]]","[[1, 1, 1, 1, 3], [1, 1, 1, 1, 3], [1, 1, 3, 1, 1], [1, 3, 1, 1, 1], [1, 1, 3, 1, 3]]","[6, 7, 2, 3, 12]",14,22,3,0.062,0.0606666666666667,0.00133333333333333,"[21, 23, 8, 3]",4,"greedy",5,5,8106,4,187,183,3074870002434468864,"attentional-mouselab",26,448183,0
"23","mouselab","False","[18, 15, 16, 19, 21, 0, 10, 3, 4]","[[4, 4, 2, 5, 6], [5, 3, 7, 6, 5], [3, 4, 4, 7, 4], [5, 4, 5, 4, 3], [2, 4, 6, 5, 6]]","[[1, 1, 1, 1, 1], [3, 3, 1, 1, 1], [1, 3, 1, 1, 3], [1, 1, 3, 1, 1], [3, 1, 1, 1, 1]]","[1, 2, 2, 16, 9]",26,23,4,0.042,0.039,0.003,"[18, 15, 16, 19, 21, 0, 10, 3, 4]",9,"greedy",5,5,13000,9,126,117,8095349842333278208,"attentional-mouselab",27,462609,0
"24","mouselab","False","[18, 19, 16]","[[6, 4, 4, 1, 2], [7, 3, 4, 7, 6], [5, 3, 4, 3, 1], [5, 6, 4, 7, 5], [3, 5, 7, 3, 1]]","[[1, 1, 1, 1, 1], [1, 1, 1, 1, 1], [1, 1, 1, 1, 3], [3, 1, 3, 1, 1], [1, 1, 1, 1, 1]]","[5, 2, 6, 9, 8]",10,24,3,0.041,0.04,0.001,"[18, 19, 16]",3,"none",5,5,4367,3,124,121,13937648697184923648,"attentional-mouselab",28,468554,0
"25","mouselab","False","[11, 10, 13, 21, 1]","[[4, 7, 8, 4, 5], [8, 8, 6, 3, 2], [5, 6, 7, 1, 3], [3, 8, 3, 6, 6], [7, 3, 7, 8, 4]]","[[3, 1, 1, 1, 1], [1, 1, 1, 1, 1], [1, 1, 1, 1, 3], [1, 1, 1, 1, 1], [1, 1, 1, 3, 1]]","[1, 9, 11, 1, 8]",20,25,1,0.059,0.0573333333333333,0.00166666666666667,"[11, 10, 13, 21, 1]",5,"none",5,5,6683,5,177,172,11109873793114738688,"attentional-mouselab",29,477087,0
"26","mouselab","False","[21, 1]","[[8, 6, 1, 4, 5], [7, 3, 4, 6, 7], [7, 6, 7, 6, 5], [4, 6, 5, 8, 5], [5, 8, 6, 5, 2]]","[[1, 1, 1, 1, 1], [1, 1, 1, 3, 1], [1, 1, 1, 1, 1], [3, 1, 1, 1, 1], [1, 1, 1, 3, 1]]","[1, 13, 4, 2, 10]",22,26,1,0.054,0.0533333333333333,0.000666666666666667,"[21, 1]",2,"none",5,5,4672,2,161,159,15708398506966882304,"attentional-mouselab",30,483271,0
"27","mouselab","False","[24, 4, 0, 10, 21]","[[3, 5, 5, 4, 5], [7, 0, 2, 6, 2], [4, 9, 8, 6, 7], [5, 4, 6, 5, 4], [4, 3, 6, 5, 4]]","[[1, 1, 3, 1, 1], [3, 1, 1, 1, 1], [1, 3, 1, 1, 3], [3, 1, 1, 1, 1], [1, 1, 3, 1, 1]]","[5, 4, 8, 4, 9]",10,27,4,0.047,0.0453333333333333,0.00166666666666667,"[24, 4, 0, 10, 21]",5,"greedy",5,5,9831,5,141,136,14903047551002691584,"attentional-mouselab",31,494320,0
"28","mouselab","False","[19, 16, 18, 6, 9, 5, 8, 7, 2, 1]","[[7, 6, 7, 4, 7], [3, 3, 5, 3, 6], [7, 5, 6, 7, 9], [5, 5, 4, 4, 3], [5, 6, 6, 7, 4]]","[[1, 1, 1, 1, 3], [1, 1, 1, 1, 1], [1, 1, 1, 1, 1], [3, 1, 3, 1, 1], [1, 1, 1, 1, 1]]","[4, 10, 3, 12, 1]",20,28,2,0.05,0.0466666666666667,0.00333333333333333,"[19, 16, 18, 6, 9, 5, 8, 7, 2, 1]",10,"none",5,5,9462,10,150,140,10124570065356533760,"attentional-mouselab",32,505047,0
"29","mouselab","False","[17, 19, 16, 18, 15, 15, 15, 2, 1]","[[5, 8, 5, 7, 4], [6, 6, 5, 6, 8], [3, 4, 5, 4, 6], [4, 5, 4, 5, 5], [5, 4, 7, 2, 6]]","[[3, 1, 1, 3, 3], [1, 3, 1, 3, 1], [1, 1, 1, 1, 1], [3, 1, 1, 1, 1], [1, 1, 1, 1, 1]]","[10, 1, 4, 12, 3]",20,29,1,0.058,0.055,0.003,"[17, 19, 16, 18, 15, 2, 1]",7,"greedy",5,5,10579,9,174,165,1.0594741197793e+19,"attentional-mouselab",33,517012,0
"30","mouselab","False","[6, 8, 9, 20, 23, 24, 11, 0]","[[8, 4, 7, 4, 5], [2, 4, 7, 4, 4], [6, 6, 5, 4, 6], [10, 4, 5, 6, 6], [3, 5, 6, 4, 6]]","[[1, 3, 1, 1, 3], [3, 1, 3, 1, 1], [1, 1, 1, 1, 1], [1, 1, 3, 1, 3], [1, 1, 1, 1, 1]]","[6, 12, 2, 7, 3]",14,30,0,0.054,0.0513333333333333,0.00266666666666667,"[6, 8, 9, 20, 23, 24, 11, 0]",8,"greedy",5,5,8695,8,163,155,6720485020095242240,"attentional-mouselab",34,527461,0
"31","mouselab","False","[20, 24, 22, 21, 23, 5, 14, 17, 2]","[[4, 3, 7, 6, 6], [4, 4, 7, 1, 4], [4, 6, 4, 5, 3], [6, 5, 6, 6, 5], [2, 4, 4, 5, 6]]","[[3, 1, 1, 3, 3], [1, 1, 1, 1, 1], [1, 1, 3, 1, 1], [3, 3, 1, 1, 1], [1, 1, 1, 1, 1]]","[1, 3, 6, 7, 13]",16,31,2,0.049,0.046,0.003,"[20, 24, 22, 21, 23, 5, 14, 17, 2]",9,"greedy",5,5,12038,9,146,137,9962053402542690304,"attentional-mouselab",35,540888,0
"32","mouselab","False","[24, 6, 1, 21, 9, 12, 5, 7]","[[4, 5, 6, 8, 4], [5, 7, 5, 4, 2], [6, 7, 4, 5, 5], [6, 2, 7, 6, 6], [5, 2, 1, 2, 3]]","[[1, 1, 3, 1, 3], [1, 1, 1, 3, 1], [3, 3, 1, 1, 1], [1, 1, 1, 1, 1], [3, 1, 1, 1, 1]]","[6, 8, 3, 5, 8]",8,32,1,0.044,0.0413333333333333,0.00266666666666667,"[24, 6, 1, 21, 9, 12, 5, 7]",8,"greedy",5,5,19169,8,133,125,4874132369852542976,"attentional-mouselab",36,561474,0
"33","mouselab","True","[]","[[4, 4, 5, 7, 6], [2, 6, 5, 5, 1], [7, 6, 6, 5, 7], [6, 6, 5, 5, 6], [3, 3, 10, 7, 9]]","[[1, 1, 3, 1, 1], [1, 1, 3, 1, 1], [1, 1, 1, 1, 1], [1, 1, 1, 3, 1], [1, 1, 1, 1, 1]]","[4, 7, 6, 10, 3]",10,1,3,0.055,0.055,0,"[]",0,"none",5,5,4669,0,164,164,769119839419655680,"attentional-mouselab",4,164475,1
"34","mouselab","True","[]","[[6, 3, 3, 7, 5], [5, 5, 2, 4, 2], [2, 4, 6, 8, 5], [6, 7, 6, 3, 6], [8, 5, 8, 7, 8]]","[[1, 1, 1, 1, 3], [1, 3, 1, 1, 1], [1, 3, 1, 1, 1], [1, 1, 1, 1, 1], [1, 1, 1, 1, 1]]","[2, 3, 11, 11, 3]",20,2,0,0.046,0.046,0,"[]",0,"none",5,5,4582,0,139,139,328815342963378624,"attentional-mouselab",5,182467,1
"35","mouselab","False","[]","[[5, 3, 8, 8, 6], [3, 5, 8, 6, 7], [4, 2, 4, 9, 5], [4, 6, 4, 4, 1], [6, 4, 7, 8, 3]]","[[1, 3, 3, 1, 1], [3, 1, 1, 1, 3], [1, 1, 1, 1, 1], [1, 1, 1, 3, 3], [1, 1, 1, 1, 1]]","[5, 3, 4, 16, 2]",20,3,2,0.053,0.053,0,"[]",0,"greedy",5,5,2574,0,158,158,9993877483205189632,"attentional-mouselab",7,193586,1
"36","mouselab","False","[]","[[4, 6, 4, 6, 4], [3, 4, 4, 3, 6], [3, 3, 7, 4, 5], [4, 6, 5, 6, 5], [5, 4, 6, 4, 3]]","[[1, 3, 3, 1, 1], [3, 1, 1, 1, 1], [3, 3, 1, 1, 3], [1, 1, 1, 1, 1], [1, 1, 1, 1, 1]]","[3, 9, 2, 10, 6]",14,4,4,0.048,0.048,0,"[]",0,"greedy",5,5,2062,0,144,144,13816188507388532736,"attentional-mouselab",8,198490,1
"37","mouselab","False","[]","[[6, 6, 7, 5, 3], [1, 5, 5, 5, 5], [5, 8, 2, 6, 5], [9, 3, 4, 7, 5], [3, 4, 6, 5, 3]]","[[1, 1, 3, 1, 1], [1, 3, 1, 1, 1], [3, 1, 1, 1, 1], [3, 3, 1, 1, 3], [1, 1, 1, 1, 1]]","[5, 9, 1, 10, 5]",14,5,3,0.057,0.057,0,"[]",0,"greedy",5,5,5631,0,171,171,3.82383947858e+18,"attentional-mouselab",9,208778,1
"38","mouselab","False","[]","[[3, 5, 5, 4, 1], [5, 7, 5, 3, 6], [9, 3, 7, 7, 6], [3, 5, 3, 6, 5], [5, 5, 4, 4, 2]]","[[3, 1, 3, 1, 1], [3, 1, 1, 1, 1], [1, 1, 3, 3, 3], [1, 1, 1, 1, 1], [1, 1, 1, 1, 1]]","[1, 5, 11, 4, 9]",16,6,3,0.052,0.052,0,"[]",0,"greedy",5,5,2567,0,156,156,3623471918716358656,"attentional-mouselab",10,214530,1
"39","mouselab","False","[]","[[6, 4, 3, 4, 4], [4, 8, 4, 8, 5], [4, 6, 6, 5, 6], [6, 5, 6, 6, 5], [3, 7, 4, 5, 5]]","[[1, 3, 1, 1, 1], [1, 1, 1, 3, 1], [1, 1, 3, 1, 1], [1, 1, 1, 1, 3], [1, 3, 1, 1, 3]]","[3, 7, 7, 8, 5]",8,7,0,0.046,0.046,0,"[]",0,"greedy",5,5,1647,0,137,137,7980373377851086848,"attentional-mouselab",11,221106,1
"40","mouselab","False","[]","[[5, 10, 7, 4, 3], [7, 5, 8, 5, 9], [4, 6, 4, 5, 3], [5, 4, 1, 6, 6], [5, 7, 9, 4, 7]]","[[1, 1, 1, 1, 1], [1, 1, 1, 3, 1], [1, 3, 1, 1, 1], [1, 1, 1, 1, 1], [1, 1, 3, 1, 1]]","[8, 4, 4, 12, 2]",16,8,0,0.051,0.051,0,"[]",0,"none",5,5,5799,0,154,154,7551109421759994880,"attentional-mouselab",12,228962,1
"41","mouselab","False","[]","[[6, 8, 4, 6, 7], [6, 9, 5, 6, 6], [4, 6, 6, 4, 6], [4, 9, 9, 3, 6], [1, 3, 5, 5, 6]]","[[3, 1, 1, 3, 1], [1, 3, 1, 1, 1], [1, 1, 1, 1, 1], [1, 1, 1, 1, 1], [1, 1, 1, 1, 1]]","[9, 4, 4, 8, 5]",10,9,3,0.048,0.048,0,"[]",0,"none",5,5,3566,0,143,143,10764912155695370240,"attentional-mouselab",13,236610,1
"42","mouselab","False","[]","[[6, 6, 7, 4, 5], [5, 7, 8, 5, 3], [5, 3, 8, 4, 8], [5, 6, 6, 4, 2], [7, 6, 4, 7, 4]]","[[1, 3, 1, 1, 1], [1, 3, 1, 1, 1], [1, 1, 1, 1, 3], [3, 1, 1, 1, 1], [1, 1, 3, 3, 1]]","[5, 3, 6, 14, 2]",16,10,0,0.053,0.053,0,"[]",0,"greedy",5,5,4686,0,159,159,3947136800517902336,"attentional-mouselab",14,244106,1
"43","mouselab","False","[]","[[2, 6, 3, 3, 1], [3, 6, 4, 6, 6], [7, 3, 4, 9, 6], [3, 6, 7, 9, 6], [4, 3, 2, 8, 4]]","[[1, 1, 3, 1, 1], [1, 1, 1, 1, 1], [1, 1, 1, 1, 1], [1, 1, 1, 1, 3], [1, 3, 1, 1, 1]]","[15, 3, 2, 5, 5]",18,11,2,0.037,0.037,0,"[]",0,"none",5,5,2342,0,110,110,5956738843523369984,"attentional-mouselab",15,250026,1
"44","mouselab","False","[]","[[5, 7, 8, 5, 1], [4, 4, 4, 5, 4], [4, 7, 3, 5, 3], [5, 6, 4, 4, 7], [5, 5, 1, 8, 6]]","[[1, 3, 1, 1, 1], [1, 1, 1, 3, 1], [1, 1, 1, 1, 1], [1, 1, 3, 1, 1], [1, 1, 1, 1, 1]]","[2, 4, 7, 4, 13]",16,12,0,0.046,0.046,0,"[]",0,"none",5,5,1967,0,139,139,14783311124635496448,"attentional-mouselab",16,254610,1
"45","mouselab","False","[]","[[3, 3, 5, 5, 6], [5, 8, 4, 5, 4], [7, 5, 4, 4, 3], [4, 1, 6, 5, 4], [6, 3, 6, 6, 4]]","[[1, 1, 1, 1, 1], [3, 1, 3, 1, 1], [1, 1, 1, 1, 1], [1, 1, 1, 1, 1], [3, 1, 1, 1, 1]]","[1, 5, 8, 15, 1]",22,13,3,0.048,0.048,0,"[]",0,"none",5,5,3334,0,143,143,6787066200596267008,"attentional-mouselab",17,259986,1
"46","mouselab","False","[]","[[10, 5, 6, 6, 4], [3, 7, 4, 6, 3], [6, 6, 6, 4, 8], [3, 3, 5, 4, 4], [4, 7, 7, 6, 5]]","[[1, 1, 1, 1, 3], [1, 1, 3, 3, 1], [1, 1, 1, 1, 3], [1, 1, 1, 1, 3], [1, 1, 3, 1, 1]]","[9, 1, 3, 11, 6]",16,14,0,0.056,0.056,0,"[]",0,"greedy",5,5,4326,0,168,168,1.683323720532e+19,"attentional-mouselab",18,266785,1
"47","mouselab","False","[]","[[7, 3, 6, 5, 2], [6, 8, 3, 3, 7], [7, 6, 5, 4, 4], [6, 7, 7, 4, 7], [7, 5, 4, 5, 8]]","[[3, 1, 3, 3, 1], [1, 1, 1, 1, 1], [1, 3, 1, 1, 1], [1, 1, 3, 1, 1], [1, 1, 1, 1, 3]]","[6, 9, 1, 10, 4]",14,15,3,0.04,0.04,0,"[]",0,"greedy",5,5,10271,0,121,121,12065443552636315648,"attentional-mouselab",19,278802,1
"48","mouselab","False","[]","[[7, 5, 5, 3, 4], [9, 7, 5, 5, 5], [10, 5, 7, 5, 4], [6, 4, 6, 5, 5], [3, 6, 3, 4, 7]]","[[1, 1, 1, 1, 1], [1, 1, 1, 3, 1], [1, 1, 3, 1, 1], [3, 1, 1, 1, 1], [3, 3, 1, 1, 3]]","[9, 1, 2, 8, 10]",18,16,1,0.051,0.051,0,"[]",0,"greedy",5,5,3263,0,154,154,4811383217915917312,"attentional-mouselab",20,284586,1
"49","mouselab","False","[]","[[5, 6, 1, 6, 4], [6, 6, 6, 5, 3], [5, 7, 5, 3, 3], [3, 5, 4, 8, 3], [4, 5, 4, 2, 8]]","[[1, 1, 1, 1, 1], [1, 1, 3, 1, 1], [3, 1, 1, 1, 1], [1, 1, 1, 1, 1], [1, 1, 3, 1, 1]]","[3, 5, 4, 7, 11]",12,17,3,0.044,0.044,0,"[]",0,"none",5,5,3174,0,133,133,7314051537635704832,"attentional-mouselab",21,289258,1
"50","mouselab","False","[]","[[4, 4, 3, 8, 6], [6, 6, 3, 6, 5], [8, 4, 2, 5, 4], [6, 4, 4, 5, 7], [4, 4, 7, 7, 6]]","[[1, 1, 1, 1, 1], [1, 1, 1, 1, 1], [1, 3, 3, 3, 1], [1, 1, 1, 1, 1], [1, 3, 3, 1, 3]]","[2, 1, 22, 4, 1]",32,18,3,0.053,0.053,0,"[]",0,"greedy",5,5,3798,0,159,159,17167630232037730304,"attentional-mouselab",22,294986,1
"51","mouselab","False","[]","[[4, 5, 4, 7, 4], [3, 5, 6, 3, 6], [2, 5, 5, 9, 3], [4, 3, 6, 5, 4], [6, 6, 5, 5, 7]]","[[1, 1, 1, 1, 1], [1, 1, 3, 1, 3], [1, 1, 1, 1, 1], [1, 1, 1, 1, 1], [1, 3, 1, 1, 1]]","[9, 2, 1, 13, 5]",20,19,0,0.042,0.042,0,"[]",0,"none",5,5,2278,0,126,126,11140667409214375936,"attentional-mouselab",23,299562,1
"52","mouselab","False","[]","[[6, 5, 4, 5, 7], [3, 10, 5, 4, 6], [6, 2, 5, 4, 7], [4, 6, 5, 6, 3], [2, 4, 6, 3, 4]]","[[3, 1, 1, 1, 1], [1, 1, 1, 3, 1], [1, 1, 1, 1, 1], [1, 1, 1, 1, 1], [1, 3, 1, 1, 1]]","[1, 3, 13, 5, 8]",18,20,2,0.052,0.052,0,"[]",0,"none",5,5,3502,0,157,157,5252829189636114432,"attentional-mouselab",24,304634,1
"53","mouselab","False","[]","[[5, 6, 4, 5, 3], [4, 5, 6, 5, 7], [7, 6, 4, 8, 3], [5, 8, 6, 6, 5], [2, 7, 6, 4, 5]]","[[1, 1, 1, 1, 1], [1, 1, 1, 1, 3], [3, 1, 1, 1, 1], [1, 1, 3, 1, 3], [1, 1, 3, 1, 3]]","[5, 4, 2, 6, 13]",14,21,1,0.067,0.067,0,"[]",0,"greedy",5,5,5638,0,201,201,1.1200984843886e+19,"attentional-mouselab",25,312009,1
"54","mouselab","False","[]","[[6, 4, 6, 5, 6], [4, 4, 3, 4, 3], [3, 4, 4, 4, 7], [6, 8, 6, 6, 4], [2, 4, 4, 4, 2]]","[[3, 1, 3, 1, 3], [1, 1, 1, 1, 1], [1, 1, 1, 1, 1], [1, 1, 1, 1, 1], [1, 1, 1, 1, 1]]","[11, 4, 3, 10, 2]",18,22,2,0.053,0.053,0,"[]",0,"none",5,5,3888,0,158,158,4156891568436322304,"attentional-mouselab",26,317529,1
"55","mouselab","False","[]","[[5, 9, 8, 6, 5], [5, 6, 6, 7, 5], [4, 6, 5, 6, 6], [4, 6, 7, 3, 6], [5, 3, 9, 1, 4]]","[[1, 1, 1, 1, 1], [1, 1, 3, 3, 1], [1, 1, 1, 1, 1], [1, 3, 1, 1, 3], [1, 3, 1, 3, 1]]","[7, 5, 6, 5, 7]",4,23,0,0.046,0.046,0,"[]",0,"greedy",5,5,4646,0,139,139,5132658128173357056,"attentional-mouselab",27,323633,1
"56","mouselab","False","[]","[[6, 3, 6, 4, 5], [8, 0, 7, 3, 7], [4, 7, 5, 6, 3], [5, 7, 3, 6, 6], [5, 3, 2, 4, 3]]","[[1, 1, 1, 1, 1], [1, 1, 1, 1, 1], [3, 1, 1, 1, 3], [1, 1, 1, 1, 3], [1, 1, 1, 1, 1]]","[7, 5, 6, 8, 4]",6,24,3,0.048,0.048,0,"[]",0,"none",5,5,1878,0,143,143,13593705341375068160,"attentional-mouselab",28,326721,1
"57","mouselab","False","[]","[[5, 2, 3, 6, 7], [7, 6, 4, 7, 5], [5, 4, 5, 5, 8], [4, 8, 6, 1, 6], [7, 6, 3, 6, 7]]","[[1, 1, 1, 1, 1], [1, 1, 3, 3, 1], [1, 3, 1, 1, 1], [3, 3, 1, 1, 1], [3, 1, 1, 1, 1]]","[2, 5, 2, 17, 4]",22,25,4,0.062,0.062,0,"[]",0,"greedy",5,5,5895,0,185,185,12011920647772289024,"attentional-mouselab",29,334601,1
"58","mouselab","False","[]","[[4, 4, 4, 6, 6], [6, 5, 8, 2, 5], [6, 3, 9, 5, 3], [5, 3, 5, 3, 4], [1, 5, 2, 8, 9]]","[[1, 1, 3, 1, 1], [1, 1, 1, 1, 1], [1, 1, 1, 1, 1], [3, 1, 1, 1, 1], [3, 1, 3, 3, 3]]","[6, 3, 1, 12, 8]",16,26,1,0.039,0.039,0,"[]",0,"greedy",5,5,4718,0,118,118,2101888319876857856,"attentional-mouselab",30,341017,1
"59","mouselab","False","[]","[[3, 6, 7, 2, 2], [5, 5, 3, 3, 8], [5, 3, 4, 7, 5], [6, 5, 5, 7, 6], [7, 7, 4, 0, 5]]","[[3, 1, 1, 1, 1], [1, 1, 1, 1, 1], [1, 1, 1, 1, 1], [3, 1, 1, 1, 1], [3, 1, 1, 1, 1]]","[5, 13, 7, 2, 3]",16,27,0,0.049,0.049,0,"[]",0,"none",5,5,3597,0,148,148,7772052631999813632,"attentional-mouselab",31,346385,1
"60","mouselab","False","[]","[[5, 4, 6, 8, 4], [3, 6, 5, 4, 2], [3, 4, 3, 4, 6], [5, 4, 4, 6, 8], [3, 7, 5, 4, 4]]","[[1, 1, 1, 1, 3], [1, 1, 1, 1, 1], [3, 1, 1, 1, 1], [1, 1, 1, 1, 1], [1, 1, 3, 1, 1]]","[7, 11, 5, 5, 2]",12,28,1,0.049,0.049,0,"[]",0,"none",5,5,4455,0,148,148,12352421598583523328,"attentional-mouselab",32,351977,1
"61","mouselab","False","[]","[[6, 5, 5, 5, 3], [3, 5, 4, 9, 5], [8, 4, 6, 1, 1], [6, 4, 6, 5, 5], [5, 1, 3, 5, 7]]","[[1, 3, 1, 1, 1], [1, 1, 1, 1, 3], [1, 1, 3, 1, 1], [1, 1, 1, 1, 1], [1, 1, 1, 1, 1]]","[4, 13, 6, 5, 2]",14,29,4,0.041,0.041,0,"[]",0,"none",5,5,7870,0,122,122,11279851586350116864,"attentional-mouselab",33,361497,1
"62","mouselab","False","[]","[[2, 0, 6, 6, 4], [8, 2, 3, 5, 8], [4, 5, 6, 5, 4], [5, 3, 5, 2, 5], [6, 6, 6, 8, 4]]","[[1, 1, 1, 1, 3], [1, 1, 1, 1, 1], [1, 1, 1, 1, 1], [1, 1, 3, 1, 1], [1, 1, 1, 1, 3]]","[1, 6, 15, 6, 2]",18,30,1,0.039,0.039,0,"[]",0,"none",5,5,3318,0,117,117,16775244063037286400,"attentional-mouselab",34,366281,1
"63","mouselab","False","[]","[[5, 5, 5, 5, 8], [5, 7, 4, 3, 4], [9, 5, 2, 4, 7], [3, 3, 3, 3, 5], [3, 4, 5, 3, 5]]","[[1, 1, 1, 1, 3], [1, 1, 1, 1, 3], [1, 1, 1, 1, 1], [1, 1, 1, 1, 1], [1, 1, 1, 3, 1]]","[3, 3, 7, 2, 15]",20,31,3,0.034,0.034,0,"[]",0,"none",5,5,2174,0,103,103,7852816494393605120,"attentional-mouselab",35,369808,1
"64","mouselab","False","[]","[[5, 7, 9, 3, 5], [2, 4, 5, 6, 5], [5, 3, 6, 5, 4], [6, 7, 8, 7, 7], [3, 6, 7, 6, 6]]","[[1, 1, 1, 1, 1], [3, 1, 1, 1, 1], [1, 1, 1, 1, 1], [1, 3, 1, 3, 3], [1, 3, 1, 3, 1]]","[14, 4, 4, 6, 2]",16,32,2,0.077,0.077,0,"[]",0,"greedy",5,5,2958,0,232,232,7495101703593457664,"attentional-mouselab",36,374233,1
"65","mouselab","True","[]","[[9, 7, 4, 4, 5], [4, 4, 3, 4, 7], [9, 6, 4, 4, 4], [5, 5, 5, 6, 3], [5, 3, 6, 6, 6]]","[[1, 1, 1, 1, 3], [1, 1, 3, 1, 1], [1, 3, 1, 1, 1], [1, 1, 1, 1, 1], [1, 1, 1, 1, 1]]","[14, 7, 4, 4, 1]",18,1,3,0.043,0.043,0,"[]",0,"none",5,5,4108,0,130,130,17260176820726358016,"attentional-mouselab",4,166111,2
"66","mouselab","True","[]","[[5, 7, 2, 7, 1], [7, 4, 7, 9, 3], [5, 4, 0, 7, 7], [7, 7, 5, 3, 7], [6, 4, 6, 5, 4]]","[[1, 1, 1, 1, 1], [1, 1, 3, 1, 1], [1, 1, 1, 1, 3], [1, 1, 1, 1, 1], [1, 1, 3, 1, 1]]","[4, 2, 16, 5, 3]",20,2,2,0.022,0.022,0,"[]",0,"none",5,5,2849,0,65,65,15223638265266886656,"attentional-mouselab",5,172119,2
"67","mouselab","False","[]","[[7, 7, 6, 3, 2], [2, 7, 7, 7, 5], [5, 6, 4, 7, 2], [3, 4, 4, 5, 6], [5, 4, 5, 2, 6]]","[[1, 1, 1, 1, 1], [3, 1, 1, 1, 1], [1, 1, 1, 1, 1], [3, 1, 1, 1, 1], [1, 3, 1, 1, 1]]","[2, 2, 17, 8, 1]",26,3,2,0.044,0.044,0,"[]",0,"none",5,5,6412,0,131,131,562596842585805632,"attentional-mouselab",7,187362,2
"68","mouselab","False","[]","[[7, 4, 4, 8, 5], [4, 4, 6, 5, 5], [5, 5, 6, 6, 7], [5, 3, 5, 6, 5], [2, 3, 5, 4, 5]]","[[1, 1, 1, 3, 1], [1, 1, 1, 1, 1], [1, 1, 1, 1, 1], [1, 1, 1, 1, 1], [3, 1, 3, 1, 1]]","[3, 3, 1, 5, 18]",24,4,1,0.033,0.033,0,"[]",0,"none",5,5,1942,0,98,98,10064907277003509760,"attentional-mouselab",8,197529,2
"69","mouselab","False","[]","[[7, 6, 7, 3, 5], [4, 8, 7, 6, 2], [3, 5, 5, 5, 5], [7, 6, 3, 6, 4], [5, 4, 3, 6, 4]]","[[1, 1, 3, 1, 1], [1, 1, 3, 3, 3], [1, 3, 1, 1, 1], [1, 1, 1, 1, 3], [1, 1, 1, 1, 1]]","[2, 18, 4, 5, 1]",24,5,0,0.046,0.046,0,"[]",0,"greedy",5,5,2370,0,138,138,8259822760206505984,"attentional-mouselab",9,207159,2
"70","mouselab","False","[]","[[7, 5, 5, 6, 8], [4, 6, 5, 7, 7], [5, 4, 4, 5, 4], [6, 3, 3, 7, 3], [6, 6, 6, 5, 7]]","[[3, 1, 1, 1, 1], [3, 1, 1, 1, 1], [1, 1, 1, 1, 1], [3, 3, 1, 1, 3], [3, 1, 1, 1, 1]]","[7, 7, 8, 4, 4]",8,6,3,0.06,0.06,0,"[]",0,"greedy",5,5,3884,0,179,179,8609651363157329920,"attentional-mouselab",10,214395,2
"71","mouselab","False","[]","[[5, 4, 4, 4, 5], [6, 5, 3, 8, 5], [5, 6, 4, 0, 4], [6, 5, 4, 5, 8], [9, 4, 6, 5, 4]]","[[1, 1, 1, 3, 1], [3, 1, 1, 1, 1], [1, 1, 1, 1, 1], [1, 1, 1, 1, 1], [1, 1, 1, 3, 1]]","[2, 9, 3, 10, 6]",14,7,1,0.048,0.048,0,"[]",0,"none",5,5,2469,0,145,145,14523968034945136640,"attentional-mouselab",11,218905,2
"72","mouselab","False","[]","[[6, 6, 8, 4, 6], [3, 4, 5, 6, 4], [5, 6, 4, 3, 4], [3, 5, 5, 5, 5], [6, 2, 7, 8, 5]]","[[1, 1, 1, 1, 3], [1, 1, 1, 1, 1], [1, 1, 1, 1, 1], [1, 3, 1, 1, 1], [1, 3, 1, 1, 1]]","[3, 6, 3, 1, 17]",22,8,2,0.063,0.063,0,"[]",0,"none",5,5,1462,0,190,190,8261225197142062080,"attentional-mouselab",12,222592,2
"73","mouselab","False","[]","[[4, 7, 7, 7, 6], [3, 2, 4, 8, 9], [3, 6, 7, 2, 5], [4, 4, 0, 5, 2], [6, 5, 6, 7, 6]]","[[1, 3, 3, 1, 3], [1, 1, 1, 1, 1], [1, 3, 1, 1, 1], [1, 3, 1, 1, 1], [1, 1, 1, 1, 3]]","[3, 3, 20, 1, 3]",28,9,0,0.034,0.034,0,"[]",0,"greedy",5,5,1408,0,103,103,10248772509457868800,"attentional-mouselab",13,225437,2
"74","mouselab","False","[]","[[4, 5, 4, 7, 5], [7, 8, 7, 7, 4], [6, 4, 4, 2, 5], [5, 5, 5, 6, 5], [2, 4, 5, 3, 6]]","[[1, 1, 3, 1, 1], [1, 3, 1, 1, 1], [1, 1, 1, 1, 1], [1, 1, 1, 1, 1], [1, 1, 3, 1, 1]]","[4, 2, 6, 11, 7]",12,10,0,0.045,0.045,0,"[]",0,"none",5,5,1254,0,135,135,3028280986078672384,"attentional-mouselab",14,228099,2
"75","mouselab","False","[]","[[4, 7, 4, 6, 3], [3, 4, 2, 7, 6], [6, 6, 8, 7, 3], [5, 4, 4, 5, 7], [4, 6, 2, 4, 5]]","[[1, 3, 1, 1, 1], [1, 1, 1, 3, 1], [1, 3, 3, 1, 1], [1, 1, 3, 1, 3], [1, 1, 1, 1, 1]]","[4, 1, 2, 2, 21]",30,11,0,0.042,0.042,0,"[]",0,"greedy",5,5,1516,0,125,125,3660487832580721152,"attentional-mouselab",15,230972,2
"76","mouselab","False","[]","[[7, 4, 7, 2, 5], [5, 5, 2, 4, 5], [5, 5, 5, 3, 7], [1, 4, 2, 5, 7], [6, 6, 4, 3, 3]]","[[1, 1, 1, 3, 1], [1, 1, 1, 1, 1], [1, 1, 1, 1, 1], [1, 1, 3, 1, 3], [1, 1, 1, 1, 1]]","[1, 1, 2, 19, 7]",28,12,1,0.046,0.046,0,"[]",0,"none",5,5,1134,0,137,137,17282250045766486016,"attentional-mouselab",16,233466,2
"77","mouselab","False","[]","[[4, 6, 0, 3, 6], [3, 3, 6, 5, 8], [5, 7, 5, 3, 5], [4, 5, 5, 5, 7], [6, 4, 5, 6, 4]]","[[3, 1, 1, 1, 3], [1, 1, 1, 1, 1], [1, 1, 1, 1, 1], [1, 3, 1, 1, 1], [1, 1, 1, 1, 1]]","[13, 10, 3, 3, 1]",22,13,2,0.032,0.032,0,"[]",0,"none",5,5,1108,0,95,95,2925700782542383616,"attentional-mouselab",17,235488,2
"78","mouselab","False","[]","[[3, 7, 5, 7, 7], [6, 8, 7, 6, 6], [7, 4, 5, 4, 7], [7, 4, 5, 4, 4], [9, 4, 4, 5, 4]]","[[1, 3, 1, 1, 3], [1, 1, 1, 1, 1], [1, 1, 1, 1, 1], [1, 1, 1, 3, 1], [1, 1, 1, 1, 1]]","[1, 5, 1, 18, 5]",24,14,0,0.07,0.07,0,"[]",0,"none",5,5,6853,0,211,211,12613514967124201472,"attentional-mouselab",18,243854,2
"79","mouselab","False","[]","[[5, 6, 3, 8, 2], [4, 7, 6, 5, 6], [2, 6, 3, 3, 4], [4, 5, 8, 4, 5], [4, 4, 4, 5, 4]]","[[1, 1, 1, 1, 1], [3, 1, 3, 1, 3], [1, 3, 1, 1, 1], [1, 1, 1, 1, 1], [1, 1, 3, 3, 1]]","[15, 4, 3, 2, 6]",18,15,1,0.057,0.057,0,"[]",0,"greedy",5,5,2491,0,170,170,3280235141302247424,"attentional-mouselab",19,248209,2
"80","mouselab","False","[]","[[8, 8, 6, 3, 8], [2, 6, 4, 8, 2], [4, 7, 3, 6, 5], [7, 7, 5, 6, 6], [4, 4, 6, 7, 2]]","[[1, 1, 1, 3, 1], [1, 3, 1, 1, 1], [1, 1, 3, 1, 1], [1, 1, 1, 1, 1], [1, 1, 1, 1, 1]]","[1, 4, 15, 3, 7]",20,16,0,0.042,0.042,0,"[]",0,"none",5,5,1387,0,125,125,10789778840371421184,"attentional-mouselab",20,252498,2
"81","mouselab","False","[]","[[6, 5, 5, 2, 7], [6, 5, 4, 6, 2], [5, 5, 5, 4, 5], [5, 5, 6, 4, 3], [5, 6, 4, 7, 4]]","[[1, 3, 1, 1, 3], [1, 1, 1, 1, 1], [1, 1, 1, 1, 3], [1, 1, 1, 1, 1], [3, 3, 3, 1, 1]]","[2, 4, 21, 2, 1]",30,17,3,0.042,0.042,0,"[]",0,"greedy",5,5,1400,0,127,127,14352530778691254272,"attentional-mouselab",21,255401,2
"82","mouselab","False","[]","[[5, 4, 7, 5, 5], [3, 6, 1, 5, 2], [5, 4, 6, 5, 4], [4, 7, 4, 6, 3], [6, 6, 6, 6, 5]]","[[3, 1, 1, 1, 1], [1, 1, 1, 1, 3], [1, 1, 1, 1, 3], [1, 1, 1, 1, 1], [1, 1, 1, 1, 1]]","[2, 9, 7, 10, 2]",16,18,1,0.057,0.057,0,"[]",0,"none",5,5,1258,0,172,172,14523633457988585472,"attentional-mouselab",22,257949,2
"83","mouselab","False","[]","[[4, 5, 4, 10, 4], [5, 4, 6, 7, 6], [3, 6, 7, 8, 8], [6, 6, 6, 1, 6], [5, 3, 6, 7, 6]]","[[1, 3, 1, 1, 1], [1, 1, 3, 1, 1], [3, 1, 1, 1, 1], [3, 1, 1, 3, 1], [1, 1, 3, 1, 1]]","[10, 5, 9, 4, 2]",14,19,4,0.059,0.059,0,"[]",0,"greedy",5,5,1485,0,178,178,831314655264385664,"attentional-mouselab",23,260629,2
"84","mouselab","False","[]","[[4, 2, 5, 4, 6], [5, 5, 4, 5, 4], [4, 3, 6, 3, 5], [4, 3, 3, 4, 3], [9, 4, 8, 9, 4]]","[[3, 1, 1, 1, 1], [1, 1, 1, 1, 1], [1, 1, 1, 1, 1], [1, 3, 1, 1, 3], [1, 1, 1, 1, 1]]","[10, 5, 8, 2, 5]",12,20,2,0.055,0.055,0,"[]",0,"none",5,5,1403,0,164,164,17093213325930434560,"attentional-mouselab",24,263358,2
"85","mouselab","False","[]","[[6, 6, 6, 3, 4], [7, 4, 5, 6, 3], [9, 6, 5, 5, 5], [3, 9, 6, 6, 5], [4, 5, 5, 5, 4]]","[[1, 1, 1, 1, 1], [3, 3, 1, 1, 3], [1, 1, 1, 1, 1], [1, 1, 1, 1, 1], [1, 1, 1, 1, 1]]","[1, 3, 11, 3, 12]",22,21,2,0.051,0.051,0,"[]",0,"none",5,5,1138,0,154,154,16307928854709659648,"attentional-mouselab",25,265756,2
"86","mouselab","False","[]","[[7, 6, 6, 6, 4], [4, 5, 6, 5, 7], [2, 6, 6, 7, 5], [3, 7, 5, 7, 5], [5, 6, 4, 9, 2]]","[[3, 1, 3, 1, 1], [1, 1, 1, 1, 3], [1, 1, 1, 1, 1], [1, 3, 1, 3, 3], [1, 1, 1, 1, 1]]","[4, 11, 2, 4, 9]",16,22,1,0.058,0.058,0,"[]",0,"greedy",5,5,1311,0,173,173,6887857279676017664,"attentional-mouselab",26,268385,2
"87","mouselab","False","[]","[[5, 7, 7, 6, 5], [1, 5, 7, 4, 8], [7, 5, 9, 3, 3], [7, 3, 7, 5, 8], [4, 5, 6, 7, 5]]","[[1, 1, 1, 1, 1], [1, 1, 1, 1, 3], [1, 1, 1, 1, 3], [1, 1, 1, 1, 3], [1, 3, 3, 3, 1]]","[12, 2, 3, 3, 10]",20,23,0,0.048,0.048,0,"[]",0,"greedy",5,5,1243,0,144,144,12322558447389087744,"attentional-mouselab",27,271013,2
"88","mouselab","False","[]","[[3, 5, 1, 2, 4], [6, 2, 7, 6, 4], [5, 3, 4, 6, 5], [6, 5, 6, 5, 5], [5, 5, 6, 3, 4]]","[[3, 1, 3, 1, 1], [3, 1, 1, 3, 1], [1, 1, 1, 1, 1], [1, 3, 1, 1, 1], [1, 1, 3, 1, 1]]","[14, 8, 4, 3, 1]",20,24,4,0.042,0.042,0,"[]",0,"greedy",5,5,1680,0,127,127,3854697292530820608,"attentional-mouselab",28,274275,2
"89","mouselab","False","[]","[[7, 4, 7, 4, 4], [0, 4, 5, 4, 5], [3, 4, 6, 8, 6], [6, 2, 7, 4, 5], [9, 6, 5, 5, 6]]","[[3, 1, 3, 1, 1], [1, 1, 3, 1, 1], [1, 1, 1, 1, 1], [3, 1, 1, 1, 3], [1, 1, 1, 1, 3]]","[7, 9, 3, 7, 4]",10,25,1,0.038,0.038,0,"[]",0,"greedy",5,5,1075,0,114,114,8245879445724905472,"attentional-mouselab",29,276573,2
"90","mouselab","False","[]","[[8, 5, 5, 7, 5], [1, 6, 2, 3, 7], [3, 2, 3, 7, 7], [6, 5, 6, 2, 6], [4, 3, 6, 6, 3]]","[[1, 1, 1, 3, 1], [1, 3, 1, 1, 1], [3, 1, 1, 1, 1], [1, 1, 1, 1, 1], [1, 1, 1, 1, 1]]","[2, 10, 12, 3, 3]",20,26,2,0.034,0.034,0,"[]",0,"none",5,5,1299,0,102,102,10514135051465897984,"attentional-mouselab",30,279148,2
"91","mouselab","False","[]","[[5, 5, 4, 6, 4], [7, 4, 5, 5, 7], [5, 3, 3, 5, 3], [5, 5, 5, 3, 2], [5, 3, 6, 6, 4]]","[[3, 1, 1, 1, 1], [1, 3, 3, 3, 3], [1, 1, 1, 1, 1], [1, 1, 1, 1, 3], [1, 1, 1, 1, 1]]","[8, 3, 10, 5, 4]",12,27,1,0.04,0.04,0,"[]",0,"greedy",5,5,1199,0,119,119,1.4689004719569e+19,"attentional-mouselab",31,281526,2
"92","mouselab","False","[]","[[5, 7, 4, 6, 4], [4, 6, 7, 4, 3], [3, 8, 4, 5, 2], [9, 4, 7, 4, 5], [4, 7, 6, 10, 5]]","[[3, 1, 3, 3, 1], [1, 1, 1, 3, 1], [1, 1, 1, 1, 1], [1, 1, 1, 3, 1], [1, 3, 1, 1, 1]]","[2, 9, 3, 7, 9]",14,28,4,0.04,0.04,0,"[]",0,"greedy",5,5,1634,0,121,121,10997619320914403328,"attentional-mouselab",32,284305,2
"93","mouselab","False","[]","[[5, 5, 7, 2, 5], [7, 6, 5, 6, 5], [5, 5, 5, 6, 5], [8, 8, 3, 7, 8], [7, 5, 4, 5, 3]]","[[1, 1, 1, 3, 1], [1, 1, 1, 1, 1], [1, 1, 1, 1, 1], [1, 1, 1, 1, 1], [3, 1, 1, 1, 3]]","[6, 7, 1, 9, 7]",10,29,1,0.061,0.061,0,"[]",0,"none",5,5,1287,0,184,184,5008298051538600960,"attentional-mouselab",33,286907,2
"94","mouselab","False","[]","[[3, 7, 1, 6, 5], [5, 6, 5, 8, 7], [6, 7, 7, 5, 5], [4, 4, 8, 4, 6], [7, 4, 3, 4, 5]]","[[3, 1, 1, 1, 1], [1, 1, 3, 1, 1], [1, 1, 1, 1, 1], [1, 1, 1, 1, 1], [1, 1, 3, 1, 1]]","[5, 9, 6, 8, 2]",10,30,1,0.057,0.057,0,"[]",0,"none",5,5,1096,0,171,171,17799120970326845440,"attentional-mouselab",34,289899,2
"95","mouselab","False","[]","[[6, 7, 5, 5, 3], [4, 5, 3, 4, 3], [5, 6, 4, 7, 6], [7, 3, 6, 7, 5], [5, 0, 3, 6, 3]]","[[1, 3, 1, 1, 1], [1, 3, 1, 1, 1], [1, 3, 1, 1, 1], [3, 1, 1, 1, 1], [3, 1, 1, 3, 1]]","[4, 4, 9, 8, 5]",10,31,2,0.044,0.044,0,"[]",0,"greedy",5,5,1825,0,131,131,7840385515218324480,"attentional-mouselab",35,292935,2
"96","mouselab","False","[]","[[4, 7, 5, 4, 6], [4, 7, 9, 2, 4], [5, 5, 5, 6, 10], [8, 4, 5, 5, 8], [7, 3, 7, 4, 6]]","[[1, 1, 1, 1, 1], [1, 3, 1, 1, 1], [1, 1, 1, 1, 1], [3, 3, 1, 1, 1], [3, 1, 1, 3, 3]]","[7, 15, 1, 4, 3]",20,32,2,0.072,0.072,0,"[]",0,"greedy",5,5,1313,0,216,216,11383106036093331456,"attentional-mouselab",36,295724,2
"97","mouselab","True","[0, 4, 2, 1, 3, 12, 12, 12, 10, 23, 18, 19, 19, 19, 21, 21, 21, 11, 16, 15, 20, 5, 6, 7, 17, 22, 8, 13, 24, 14, 9, 9, 9, 9, 17, 21, 21, 12, 0, 0, 0, 22, 2]","[[2, 7, 8, 5, 6], [9, 1, 5, 5, 6], [8, 6, 5, 4, 3], [6, 6, 3, 8, 5], [5, 2, 6, 6, 7]]","[[1, 1, 1, 1, 1], [1, 1, 1, 1, 1], [1, 1, 3, 1, 1], [1, 1, 1, 1, 3], [1, 3, 1, 1, 1]]","[18, 1, 3, 6, 2]",24,1,2,0.065,0.0546666666666667,0.0103333333333333,"[0, 4, 2, 1, 3, 12, 10, 23, 18, 19, 21, 11, 16, 15, 20, 5, 6, 7, 17, 22, 8, 13, 24, 14, 9]",25,"none",5,5,65648,31,194,163,6169574964674257920,"attentional-mouselab",4,291734,3
"98","mouselab","True","[24, 24, 24, 19, 19, 19, 14, 9, 4, 3, 8, 13, 18, 23, 23, 23, 23, 22, 17, 12, 7, 2, 1, 6, 11, 16, 21, 20, 15, 10, 5, 0]","[[6, 7, 7, 4, 6], [6, 5, 4, 7, 4], [4, 6, 8, 5, 8], [7, 9, 4, 2, 3], [9, 5, 4, 6, 5]]","[[1, 1, 1, 1, 1], [1, 1, 1, 1, 1], [1, 1, 1, 1, 1], [1, 1, 1, 1, 3], [1, 1, 1, 3, 3]]","[6, 5, 6, 5, 8]",4,2,2,0.054,0.0436666666666667,0.0103333333333333,"[24, 19, 14, 9, 4, 3, 8, 13, 18, 23, 22, 17, 12, 7, 2, 1, 6, 11, 16, 21, 20, 15, 10, 5, 0]",25,"none",5,5,19816,31,162,131,16399044454356121600,"attentional-mouselab",5,315979,3
"99","mouselab","False","[8, 8, 8, 0, 0, 0, 15, 15, 15, 2, 2, 2, 3]","[[5, 8, 5, 7, 4], [6, 6, 5, 6, 8], [3, 4, 5, 4, 6], [4, 5, 4, 5, 5], [5, 4, 7, 2, 6]]","[[3, 1, 1, 1, 1], [1, 1, 1, 3, 1], [1, 1, 1, 1, 1], [3, 1, 1, 1, 1], [1, 1, 1, 1, 1]]","[4, 15, 7, 2, 2]",20,3,3,0.053,0.0493333333333333,0.00366666666666667,"[8, 0, 15, 2, 3]",5,"none",5,5,13147,11,160,149,1.0594741197793e+19,"attentional-mouselab",7,335500,3
"100","mouselab","False","[7, 7, 7, 3, 3, 8, 13, 18, 18, 18, 24, 24, 24, 6, 6, 5, 0, 1]","[[6, 5, 6, 8, 5], [2, 5, 3, 5, 3], [6, 6, 7, 4, 3], [5, 6, 7, 6, 7], [5, 5, 8, 5, 5]]","[[1, 1, 1, 1, 1], [1, 1, 3, 1, 1], [1, 1, 1, 1, 1], [1, 1, 1, 3, 1], [1, 1, 1, 1, 3]]","[3, 21, 3, 1, 2]",30,4,3,0.052,0.0466666666666667,0.00533333333333333,"[7, 3, 8, 13, 18, 24, 6, 5, 0, 1]",10,"none",5,5,13589,16,157,141,2268353347610907904,"attentional-mouselab",8,351742,3
"101","mouselab","False","[11, 11, 11, 21, 21, 21]","[[5, 5, 7, 5, 3], [5, 3, 4, 3, 6], [5, 5, 4, 4, 6], [5, 6, 2, 7, 7], [7, 5, 5, 7, 8]]","[[1, 1, 1, 1, 1], [1, 1, 1, 1, 1], [1, 3, 1, 1, 1], [1, 1, 1, 1, 1], [3, 3, 1, 1, 1]]","[4, 2, 7, 6, 11]",12,5,1,0.051,0.049,0.002,"[11, 21]",2,"none",5,5,4639,6,152,146,10176656302427779072,"attentional-mouselab",9,359473,3
"102","mouselab","False","[]","[[5, 10, 7, 4, 3], [7, 5, 8, 5, 9], [4, 6, 4, 5, 3], [5, 4, 1, 6, 6], [5, 7, 9, 4, 7]]","[[1, 1, 3, 1, 1], [1, 1, 3, 3, 1], [1, 3, 1, 1, 1], [1, 3, 1, 1, 1], [1, 1, 3, 1, 1]]","[3, 4, 1, 10, 12]",20,6,2,0.058,0.058,0,"[]",0,"greedy",5,5,2266,0,175,175,7551109421759994880,"attentional-mouselab",10,363549,3
"103","mouselab","False","[]","[[5, 5, 4, 6, 8], [6, 6, 4, 6, 4], [5, 4, 4, 8, 5], [7, 2, 3, 4, 5], [5, 6, 6, 5, 8]]","[[1, 1, 1, 1, 1], [1, 3, 1, 3, 1], [1, 1, 1, 1, 3], [1, 1, 1, 3, 1], [1, 3, 1, 1, 3]]","[10, 1, 11, 6, 2]",18,7,3,0.063,0.063,0,"[]",0,"greedy",5,5,1368,0,188,188,17668175827376572416,"attentional-mouselab",11,366569,3
"104","mouselab","False","[19, 14, 9, 12, 7, 2]","[[2, 5, 7, 3, 6], [5, 6, 3, 6, 4], [6, 7, 4, 3, 3], [3, 6, 2, 8, 6], [4, 7, 4, 5, 9]]","[[1, 1, 1, 1, 1], [1, 1, 1, 1, 1], [1, 1, 1, 1, 1], [3, 1, 3, 1, 1], [1, 1, 1, 1, 3]]","[2, 9, 7, 5, 7]",10,8,2,0.036,0.034,0.002,"[19, 14, 9, 12, 7, 2]",6,"none",5,5,8062,6,107,101,1997762067494115072,"attentional-mouselab",12,376022,3
"105","mouselab","False","[1, 2, 3, 4, 6, 7, 8, 8, 9]","[[7, 6, 5, 4, 5], [3, 5, 4, 4, 4], [5, 7, 5, 5, 6], [2, 6, 9, 5, 3], [6, 7, 6, 7, 5]]","[[3, 1, 1, 1, 1], [1, 1, 1, 1, 1], [1, 3, 1, 3, 1], [1, 1, 1, 1, 1], [3, 1, 3, 3, 1]]","[6, 11, 4, 7, 2]",12,9,1,0.058,0.0553333333333333,0.00266666666666667,"[1, 2, 3, 4, 6, 7, 8, 9]",8,"greedy",5,5,26828,8,175,167,15586456275879917568,"attentional-mouselab",13,404348,3
"106","mouselab","False","[4, 14, 3, 12, 13, 8, 7, 2, 17]","[[8, 4, 7, 4, 4], [7, 5, 3, 2, 4], [6, 1, 7, 4, 6], [3, 6, 7, 5, 3], [3, 5, 6, 6, 8]]","[[1, 1, 1, 1, 1], [1, 1, 1, 1, 1], [3, 1, 1, 1, 1], [1, 1, 1, 1, 1], [1, 1, 3, 3, 1]]","[7, 8, 5, 7, 3]",8,10,2,0.058,0.055,0.003,"[4, 14, 3, 12, 13, 8, 7, 2, 17]",9,"none",5,5,8878,9,175,166,3181316075674656256,"attentional-mouselab",14,414727,3
"107","mouselab","False","[1, 1, 1, 6, 6, 6, 11, 11, 16, 16, 16, 11, 11, 11]","[[5, 7, 5, 8, 4], [4, 6, 7, 5, 7], [7, 7, 6, 3, 3], [5, 4, 3, 6, 4], [9, 3, 6, 5, 4]]","[[1, 3, 1, 1, 1], [1, 3, 1, 1, 3], [1, 3, 1, 1, 1], [1, 3, 1, 1, 1], [1, 1, 3, 1, 1]]","[1, 13, 8, 2, 6]",18,11,1,0.056,0.052,0.004,"[1, 6, 16, 11]",4,"greedy",5,5,6649,12,167,155,11261021582943586304,"attentional-mouselab",15,424252,3
"108","mouselab","False","[8, 13, 14, 9, 4]","[[7, 4, 6, 1, 5], [7, 2, 4, 5, 3], [0, 3, 8, 4, 4], [3, 4, 4, 6, 4], [7, 7, 3, 4, 2]]","[[1, 3, 1, 1, 1], [1, 3, 3, 1, 1], [1, 1, 1, 1, 1], [1, 1, 3, 1, 1], [3, 3, 1, 1, 1]]","[7, 7, 5, 6, 5]",4,12,1,0.039,0.0373333333333333,0.00166666666666667,"[8, 13, 14, 9, 4]",5,"greedy",5,5,3910,5,116,111,15066456532851509248,"attentional-mouselab",16,430288,3
"109","mouselab","False","[14, 4, 9, 9, 9, 7, 2, 8, 13, 18]","[[6, 3, 2, 4, 5], [7, 5, 4, 6, 3], [4, 3, 3, 5, 5], [3, 6, 7, 9, 4], [4, 6, 9, 5, 8]]","[[3, 1, 1, 1, 1], [1, 1, 1, 1, 3], [1, 3, 1, 1, 1], [1, 1, 3, 1, 3], [1, 1, 1, 1, 3]]","[9, 2, 3, 2, 14]",22,13,3,0.05,0.0466666666666667,0.00333333333333333,"[14, 4, 9, 7, 2, 8, 13, 18]",8,"greedy",5,5,8795,10,151,141,2628000512506764288,"attentional-mouselab",17,443343,3
"110","mouselab","False","[11, 8, 3, 23, 21, 6]","[[5, 2, 9, 6, 7], [1, 5, 6, 3, 3], [4, 6, 6, 6, 5], [5, 5, 4, 7, 8], [4, 3, 4, 3, 8]]","[[1, 3, 1, 1, 1], [3, 1, 1, 1, 3], [1, 1, 1, 3, 1], [1, 1, 3, 3, 1], [1, 1, 1, 1, 1]]","[2, 10, 6, 3, 9]",14,14,1,0.044,0.042,0.002,"[11, 8, 3, 23, 21, 6]",6,"greedy",5,5,9379,6,132,126,13794216837015900160,"attentional-mouselab",18,454433,3
"111","mouselab","False","[10]","[[7, 4, 3, 4, 5], [5, 8, 5, 5, 6], [4, 8, 5, 3, 7], [3, 5, 6, 3, 8], [4, 4, 5, 3, 4]]","[[3, 1, 1, 1, 3], [1, 1, 1, 1, 1], [1, 1, 1, 3, 1], [1, 3, 3, 1, 1], [3, 1, 1, 1, 1]]","[6, 7, 2, 2, 13]",16,15,2,0.047,0.0466666666666667,0.000333333333333333,"[10]",1,"greedy",5,5,3176,1,140,139,10675816571694788608,"attentional-mouselab",19,458969,3
"112","mouselab","False","[11, 6, 1, 13, 8]","[[6, 3, 3, 3, 3], [5, 4, 5, 6, 6], [6, 6, 6, 7, 7], [6, 6, 6, 5, 9], [2, 4, 3, 0, 5]]","[[1, 1, 3, 1, 1], [3, 1, 1, 1, 1], [1, 1, 1, 1, 1], [1, 1, 1, 1, 1], [1, 1, 1, 1, 3]]","[11, 2, 2, 12, 3]",22,16,3,0.04,0.0383333333333333,0.00166666666666667,"[11, 6, 1, 13, 8]",5,"none",5,5,5795,5,119,114,13079073105628827648,"attentional-mouselab",20,465890,3
"113","mouselab","False","[0, 1, 2, 3]","[[5, 5, 1, 7, 6], [7, 4, 3, 4, 3], [5, 7, 4, 5, 4], [5, 6, 5, 5, 4], [2, 6, 6, 3, 2]]","[[1, 1, 1, 1, 3], [1, 1, 1, 1, 1], [1, 1, 1, 1, 1], [1, 1, 1, 1, 1], [1, 3, 1, 3, 1]]","[1, 8, 2, 15, 4]",22,17,3,0.045,0.0436666666666667,0.00133333333333333,"[0, 1, 2, 3]",4,"none",5,5,5263,4,136,132,15900247060378329088,"attentional-mouselab",21,472822,3
"114","mouselab","False","[0, 1, 2, 3, 4, 9, 14, 24]","[[3, 6, 3, 6, 6], [6, 7, 6, 4, 4], [5, 4, 3, 3, 6], [8, 8, 4, 6, 5], [6, 5, 7, 5, 8]]","[[1, 1, 1, 1, 1], [1, 3, 1, 1, 1], [3, 1, 1, 3, 1], [3, 1, 1, 3, 1], [1, 1, 3, 1, 1]]","[12, 4, 2, 8, 4]",16,18,4,0.057,0.0543333333333333,0.00266666666666667,"[0, 1, 2, 3, 4, 9, 14, 24]",8,"greedy",5,5,7847,8,172,164,3366582916428008448,"attentional-mouselab",22,482006,3
"115","mouselab","False","[2, 3, 4, 9, 13]","[[2, 5, 6, 2, 4], [7, 4, 5, 4, 3], [5, 4, 5, 7, 6], [5, 3, 6, 4, 5], [7, 6, 8, 6, 5]]","[[1, 3, 1, 1, 1], [3, 1, 1, 1, 1], [1, 1, 3, 1, 1], [1, 1, 1, 1, 1], [1, 1, 1, 1, 1]]","[3, 5, 1, 6, 15]",18,19,3,0.049,0.0473333333333333,0.00166666666666667,"[2, 3, 4, 9, 13]",5,"none",5,5,12413,5,147,142,17784626624377434112,"attentional-mouselab",23,496366,3
"116","mouselab","False","[10]","[[0, 2, 6, 6, 5], [6, 3, 5, 7, 7], [8, 5, 3, 6, 5], [5, 7, 5, 5, 3], [6, 5, 2, 7, 5]]","[[1, 1, 1, 1, 3], [1, 1, 1, 1, 1], [1, 1, 1, 1, 1], [1, 1, 3, 1, 3], [1, 1, 1, 1, 1]]","[4, 10, 6, 5, 5]",8,20,0,0.054,0.0536666666666667,0.000333333333333333,"[10]",1,"none",5,5,3375,1,163,162,14886501216194469888,"attentional-mouselab",24,501940,3
"117","mouselab","False","[12, 22, 11, 6, 21, 15, 10, 0, 3, 9, 14, 18]","[[7, 6, 6, 6, 4], [8, 5, 4, 6, 7], [5, 7, 6, 2, 4], [2, 6, 3, 4, 4], [7, 3, 3, 6, 6]]","[[1, 1, 3, 1, 1], [1, 1, 3, 1, 1], [1, 1, 1, 1, 1], [1, 1, 1, 1, 1], [3, 1, 1, 1, 1]]","[6, 5, 13, 4, 2]",14,21,0,0.056,0.052,0.004,"[12, 22, 11, 6, 21, 15, 10, 0, 3, 9, 14, 18]",12,"none",5,5,11449,12,169,157,3.868844291711e+18,"attentional-mouselab",25,514517,3
"118","mouselab","False","[14, 11, 6, 16, 5, 0, 20, 15, 4]","[[4, 10, 6, 1, 8], [7, 3, 5, 4, 3], [5, 4, 3, 5, 7], [5, 6, 6, 7, 5], [4, 6, 7, 6, 6]]","[[1, 1, 1, 1, 1], [1, 1, 1, 3, 1], [1, 1, 1, 1, 1], [1, 1, 1, 1, 3], [1, 1, 1, 1, 3]]","[1, 4, 15, 3, 7]",20,22,4,0.061,0.058,0.003,"[14, 11, 6, 16, 5, 0, 20, 15, 4]",9,"none",5,5,8117,9,182,173,12352221340228052992,"attentional-mouselab",26,524227,3
"119","mouselab","False","[12, 9, 24, 19, 14]","[[3, 3, 5, 5, 5], [4, 2, 3, 6, 7], [6, 2, 4, 4, 5], [4, 3, 7, 9, 6], [9, 6, 4, 5, 6]]","[[1, 1, 1, 1, 3], [1, 1, 1, 1, 1], [1, 1, 1, 1, 1], [3, 1, 1, 1, 1], [1, 1, 1, 3, 1]]","[1, 5, 2, 13, 9]",20,23,4,0.061,0.0593333333333333,0.00166666666666667,"[12, 9, 24, 19, 14]",5,"none",5,5,5940,5,182,177,13097383636823670784,"attentional-mouselab",27,531923,3
"120","mouselab","False","[22, 17, 12, 7, 2, 1, 6, 16, 21, 20, 15, 10, 0]","[[6, 4, 5, 2, 7], [3, 5, 4, 7, 3], [8, 7, 5, 7, 7], [8, 5, 6, 6, 2], [6, 4, 5, 6, 6]]","[[1, 1, 1, 1, 3], [3, 1, 1, 1, 1], [1, 3, 1, 3, 3], [1, 1, 1, 1, 1], [1, 1, 1, 3, 1]]","[2, 19, 2, 3, 4]",26,24,0,0.044,0.0396666666666667,0.00433333333333333,"[22, 17, 12, 7, 2, 1, 6, 16, 21, 20, 15, 10, 0]",13,"greedy",5,5,8704,13,133,120,1.206102042415e+19,"attentional-mouselab",28,542490,3
"121","mouselab","False","[3, 14]","[[4, 4, 4, 5, 5], [5, 4, 5, 5, 4], [5, 4, 5, 4, 7], [7, 6, 4, 7, 7], [3, 8, 9, 5, 4]]","[[1, 1, 1, 1, 1], [1, 3, 1, 1, 1], [3, 1, 1, 1, 1], [3, 3, 1, 3, 1], [1, 3, 1, 1, 1]]","[7, 18, 1, 2, 2]",26,25,4,0.045,0.0443333333333333,0.000666666666666667,"[3, 14]",2,"greedy",5,5,3171,2,136,134,12386627497695526912,"attentional-mouselab",29,546921,3
"122","mouselab","False","[5]","[[4, 5, 6, 5, 4], [9, 5, 6, 7, 4], [7, 6, 5, 6, 8], [6, 5, 8, 7, 5], [6, 5, 5, 4, 7]]","[[1, 1, 3, 1, 1], [1, 1, 1, 3, 3], [1, 1, 1, 3, 3], [1, 1, 1, 1, 1], [1, 1, 1, 1, 3]]","[1, 4, 9, 8, 8]",14,26,0,0.066,0.0656666666666667,0.000333333333333333,"[5]",1,"greedy",5,5,3227,1,199,198,5782540922460747776,"attentional-mouselab",30,551497,3
"123","mouselab","False","[11, 5, 6, 12, 21, 2, 22, 17]","[[6, 7, 6, 6, 5], [4, 1, 6, 5, 5], [4, 9, 6, 1, 5], [8, 6, 7, 4, 6], [6, 4, 8, 6, 3]]","[[1, 3, 1, 1, 1], [1, 1, 3, 1, 3], [1, 1, 1, 1, 1], [3, 3, 1, 3, 1], [1, 1, 1, 1, 1]]","[14, 3, 6, 6, 1]",16,27,2,0.063,0.0603333333333333,0.00266666666666667,"[11, 5, 6, 12, 21, 2, 22, 17]",8,"greedy",5,5,6243,8,188,180,1.0470353259142e+19,"attentional-mouselab",31,559515,3
"124","mouselab","False","[1, 12, 4, 18, 8]","[[1, 7, 6, 7, 6], [4, 4, 7, 3, 7], [7, 6, 5, 7, 4], [5, 7, 7, 5, 7], [2, 6, 4, 2, 4]]","[[1, 1, 1, 1, 1], [3, 1, 1, 1, 1], [1, 1, 1, 1, 1], [1, 3, 1, 1, 1], [3, 1, 1, 1, 1]]","[2, 14, 11, 1, 2]",26,28,2,0.06,0.0583333333333333,0.00166666666666667,"[1, 12, 4, 18, 8]",5,"none",5,5,7551,5,180,175,12714555551174338560,"attentional-mouselab",32,569264,3
"125","mouselab","False","[10, 15, 8, 14]","[[3, 5, 4, 3, 4], [4, 4, 2, 4, 8], [5, 6, 4, 1, 7], [6, 7, 6, 5, 2], [8, 4, 5, 5, 4]]","[[3, 1, 1, 1, 1], [1, 3, 1, 1, 1], [1, 1, 1, 3, 1], [1, 1, 3, 3, 1], [1, 1, 3, 1, 1]]","[5, 6, 8, 6, 5]",4,29,4,0.052,0.0506666666666667,0.00133333333333333,"[10, 15, 8, 14]",4,"greedy",5,5,9715,4,156,152,2903763295116752896,"attentional-mouselab",33,581867,3
"126","mouselab","False","[16, 11, 7, 14]","[[8, 3, 6, 5, 6], [1, 1, 6, 3, 5], [5, 6, 2, 5, 3], [3, 3, 6, 5, 4], [7, 7, 5, 7, 7]]","[[1, 1, 1, 1, 3], [3, 1, 1, 1, 1], [1, 1, 1, 1, 1], [1, 3, 1, 3, 1], [3, 3, 1, 1, 1]]","[7, 12, 4, 6, 1]",14,30,2,0.054,0.0526666666666667,0.00133333333333333,"[11, 7, 14]",3,"greedy",5,5,5663,4,163,159,14892568929368639488,"attentional-mouselab",34,589509,3
"127","mouselab","False","[16, 11, 1]","[[8, 4, 8, 3, 7], [2, 6, 8, 4, 4], [7, 9, 2, 6, 4], [3, 3, 7, 3, 6], [5, 6, 4, 7, 6]]","[[1, 1, 3, 1, 1], [1, 1, 1, 1, 1], [1, 1, 1, 1, 3], [1, 1, 1, 1, 1], [1, 1, 1, 3, 1]]","[13, 4, 5, 2, 6]",14,31,1,0.054,0.053,0.001,"[16, 11, 1]",3,"none",5,5,3259,3,163,160,4345462871444301824,"attentional-mouselab",35,594579,3
"128","mouselab","False","[6, 7]","[[6, 6, 6, 4, 6], [5, 6, 8, 5, 5], [4, 7, 6, 5, 8], [3, 5, 6, 3, 4], [6, 1, 7, 5, 6]]","[[1, 1, 1, 1, 1], [1, 1, 1, 1, 1], [1, 1, 1, 1, 1], [1, 1, 3, 3, 1], [1, 3, 1, 1, 1]]","[6, 3, 7, 9, 5]",8,32,2,0.064,0.0633333333333333,0.000666666666666667,"[6, 7]",2,"none",5,5,2924,2,191,189,13600671399192371200,"attentional-mouselab",36,599251,3
"129","mouselab","True","[1, 20, 18, 10, 12, 4, 24, 1, 0, 5, 13, 22, 16, 2, 15, 19, 14, 9, 3, 13, 18, 17, 21, 11, 6, 1, 7, 18, 23, 8, 8, 8]","[[7, 4, 5, 5, 1], [7, 8, 6, 6, 3], [4, 7, 7, 2, 5], [6, 6, 5, 7, 4], [5, 6, 7, 4, 6]]","[[1, 3, 1, 1, 1], [1, 1, 1, 3, 1], [1, 1, 1, 1, 1], [1, 1, 1, 3, 1], [1, 1, 1, 1, 1]]","[10, 5, 11, 3, 1]",18,1,0,0.057,0.0466666666666667,0.0103333333333333,"[20, 10, 12, 4, 24, 0, 5, 13, 22, 16, 2, 15, 19, 14, 9, 3, 17, 21, 11, 6, 1, 7, 18, 23, 8]",25,"none",5,5,106119,31,172,141,12963056430850201600,"attentional-mouselab",4,426438,4
"130","mouselab","True","[]","[[6, 7, 7, 6, 5], [4, 4, 4, 5, 9], [5, 5, 5, 6, 6], [5, 6, 2, 4, 6], [8, 6, 7, 3, 7]]","[[1, 3, 1, 1, 1], [1, 1, 1, 1, 1], [1, 1, 1, 1, 1], [1, 1, 1, 1, 3], [1, 1, 3, 1, 1]]","[4, 8, 6, 10, 2]",12,2,1,0.054,0.054,0,"[]",0,"none",5,5,25503,0,162,162,4305811605569093,"attentional-mouselab",5,454054,4
"131","mouselab","False","[]","[[5, 5, 6, 8, 5], [5, 4, 3, 5, 7], [5, 5, 10, 5, 3], [5, 5, 7, 4, 4], [3, 8, 3, 3, 5]]","[[1, 1, 1, 3, 1], [1, 3, 3, 3, 1], [1, 1, 1, 3, 1], [1, 1, 1, 1, 1], [3, 1, 1, 1, 1]]","[13, 5, 3, 6, 3]",14,3,3,0.059,0.059,0,"[]",0,"greedy",5,5,1135,0,177,177,13340095874763948032,"attentional-mouselab",7,458166,4
"132","mouselab","False","[]","[[4, 4, 8, 6, 5], [1, 5, 3, 4, 5], [4, 4, 4, 3, 5], [4, 3, 4, 5, 5], [5, 4, 6, 4, 4]]","[[1, 1, 1, 1, 1], [1, 1, 3, 1, 1], [3, 1, 1, 1, 1], [1, 1, 1, 1, 1], [3, 1, 1, 1, 1]]","[12, 9, 3, 3, 3]",18,4,0,0.032,0.032,0,"[]",0,"none",5,5,1224,0,96,96,3920526806558400512,"attentional-mouselab",8,461022,4
"133","mouselab","False","[]","[[4, 5, 5, 6, 6], [2, 3, 5, 8, 7], [6, 6, 5, 4, 5], [4, 5, 6, 6, 5], [3, 7, 4, 7, 4]]","[[1, 1, 1, 1, 1], [1, 1, 1, 1, 3], [1, 1, 1, 1, 1], [1, 1, 1, 1, 1], [1, 1, 3, 1, 3]]","[8, 6, 13, 1, 2]",18,5,4,0.056,0.056,0,"[]",0,"none",5,5,1023,0,168,168,1.2715794167736e+19,"attentional-mouselab",9,463991,4
"134","mouselab","False","[]","[[8, 5, 5, 7, 5], [1, 6, 2, 3, 7], [3, 2, 3, 7, 7], [6, 5, 6, 2, 6], [4, 3, 6, 6, 3]]","[[3, 1, 1, 3, 1], [1, 3, 1, 1, 1], [3, 1, 1, 3, 1], [1, 1, 1, 1, 1], [1, 1, 1, 1, 3]]","[2, 9, 11, 3, 5]",16,6,0,0.032,0.032,0,"[]",0,"greedy",5,5,3751,0,96,96,10514135051465897984,"attentional-mouselab",10,469734,4
"135","mouselab","False","[]","[[2, 2, 3, 5, 5], [7, 4, 6, 5, 5], [10, 6, 5, 10, 0], [3, 5, 4, 9, 7], [4, 4, 7, 7, 6]]","[[1, 1, 1, 1, 1], [1, 3, 1, 1, 1], [3, 1, 1, 1, 1], [3, 1, 1, 1, 3], [1, 3, 3, 1, 1]]","[1, 9, 7, 8, 5]",12,7,0,0.06,0.06,0,"[]",0,"greedy",5,5,1399,0,179,179,10979794793916454912,"attentional-mouselab",11,472767,4
"136","mouselab","False","[]","[[6, 5, 6, 4, 6], [4, 5, 7, 9, 5], [4, 5, 6, 4, 4], [6, 5, 3, 5, 3], [8, 6, 6, 6, 2]]","[[1, 1, 1, 1, 3], [1, 1, 1, 1, 1], [1, 1, 1, 3, 1], [1, 1, 3, 1, 1], [1, 1, 1, 1, 1]]","[4, 3, 9, 8, 6]",10,8,4,0.037,0.037,0,"[]",0,"none",5,5,3040,0,111,111,1.3090502605003e+19,"attentional-mouselab",12,477439,4
"137","mouselab","False","[]","[[4, 5, 4, 5, 6], [2, 4, 6, 7, 4], [5, 4, 6, 8, 4], [7, 5, 5, 5, 7], [10, 7, 9, 5, 5]]","[[3, 1, 1, 1, 1], [1, 3, 3, 1, 1], [1, 1, 3, 1, 1], [1, 1, 1, 1, 1], [1, 3, 3, 1, 1]]","[8, 2, 1, 12, 7]",18,9,2,0.058,0.058,0,"[]",0,"greedy",5,5,1239,0,173,173,13520616879814840320,"attentional-mouselab",13,480247,4
"138","mouselab","False","[]","[[6, 7, 7, 4, 6], [6, 5, 4, 7, 4], [4, 6, 8, 5, 8], [7, 9, 4, 2, 3], [9, 5, 4, 6, 5]]","[[1, 1, 1, 1, 1], [1, 1, 1, 1, 1], [1, 1, 1, 1, 1], [1, 1, 1, 1, 3], [1, 1, 1, 3, 3]]","[2, 2, 5, 20, 1]",28,10,4,0.042,0.042,0,"[]",0,"none",5,5,1367,0,125,125,16399044454356121600,"attentional-mouselab",14,483103,4
"139","mouselab","False","[]","[[6, 5, 4, 3, 3], [4, 2, 4, 5, 7], [7, 3, 3, 7, 5], [5, 5, 7, 8, 4], [4, 7, 5, 3, 6]]","[[1, 3, 1, 1, 3], [3, 1, 1, 3, 1], [1, 1, 1, 1, 1], [3, 1, 3, 1, 1], [1, 1, 1, 1, 1]]","[7, 11, 7, 4, 1]",14,11,0,0.053,0.053,0,"[]",0,"greedy",5,5,2328,0,159,159,10871156001637842944,"attentional-mouselab",15,486982,4
"140","mouselab","False","[]","[[6, 7, 5, 5, 5], [2, 5, 7, 5, 7], [7, 7, 4, 1, 9], [2, 5, 6, 6, 6], [7, 9, 3, 7, 5]]","[[3, 1, 1, 1, 1], [1, 1, 1, 1, 1], [1, 1, 1, 1, 1], [3, 1, 1, 3, 1], [1, 1, 1, 1, 1]]","[4, 17, 4, 1, 4]",22,12,0,0.039,0.039,0,"[]",0,"none",5,5,2039,0,116,116,1.8098680464213e+19,"attentional-mouselab",16,490463,4
"141","mouselab","False","[]","[[7, 7, 2, 4, 5], [5, 5, 6, 5, 7], [2, 6, 7, 7, 6], [6, 5, 4, 6, 4], [4, 7, 4, 4, 6]]","[[3, 1, 3, 1, 1], [1, 1, 3, 1, 1], [1, 1, 3, 1, 1], [3, 1, 1, 1, 1], [1, 1, 1, 1, 3]]","[2, 7, 8, 12, 1]",18,13,2,0.051,0.051,0,"[]",0,"greedy",5,5,1224,0,154,154,1.0591124172935e+19,"attentional-mouselab",17,493159,4
"142","mouselab","False","[]","[[3, 6, 7, 2, 2], [5, 5, 3, 3, 8], [5, 3, 4, 7, 5], [6, 5, 5, 7, 6], [7, 7, 4, 0, 5]]","[[3, 1, 1, 1, 1], [1, 1, 1, 1, 1], [1, 1, 1, 1, 1], [3, 1, 1, 1, 1], [3, 1, 1, 1, 1]]","[3, 5, 16, 3, 3]",20,14,0,0.051,0.051,0,"[]",0,"none",5,5,935,0,153,153,7772052631999813632,"attentional-mouselab",18,495654,4
"143","mouselab","False","[]","[[5, 7, 9, 3, 5], [2, 4, 5, 6, 5], [5, 3, 6, 5, 4], [6, 7, 8, 7, 7], [3, 6, 7, 6, 6]]","[[1, 1, 1, 1, 1], [3, 1, 1, 1, 1], [1, 1, 1, 1, 1], [1, 3, 1, 1, 1], [1, 3, 1, 1, 1]]","[9, 1, 12, 6, 2]",18,15,1,0.052,0.052,0,"[]",0,"none",5,5,2832,0,157,157,7495101703593457664,"attentional-mouselab",19,499694,4
"144","mouselab","False","[]","[[9, 5, 4, 6, 4], [3, 5, 7, 5, 5], [5, 7, 5, 3, 4], [7, 5, 4, 5, 7], [6, 3, 4, 5, 6]]","[[1, 1, 1, 1, 1], [3, 1, 1, 1, 3], [1, 3, 1, 1, 1], [1, 1, 1, 1, 3], [1, 1, 1, 3, 3]]","[5, 3, 9, 11, 2]",16,16,4,0.053,0.053,0,"[]",0,"greedy",5,5,23159,0,160,160,3235608236974154752,"attentional-mouselab",20,524303,4
"145","mouselab","False","[]","[[8, 4, 7, 4, 5], [4, 4, 8, 8, 7], [4, 5, 7, 5, 5], [4, 4, 7, 3, 6], [3, 8, 6, 6, 2]]","[[3, 1, 1, 1, 1], [3, 1, 1, 3, 1], [3, 1, 1, 1, 1], [1, 1, 1, 1, 1], [3, 3, 1, 1, 1]]","[4, 5, 12, 7, 2]",14,17,0,0.045,0.045,0,"[]",0,"greedy",5,5,3934,0,134,134,4238812991815630848,"attentional-mouselab",21,529935,4
"146","mouselab","False","[]","[[4, 5, 5, 4, 7], [6, 7, 6, 5, 6], [6, 9, 2, 6, 5], [4, 0, 5, 5, 8], [5, 3, 5, 7, 6]]","[[1, 3, 1, 1, 3], [1, 3, 1, 1, 1], [1, 1, 1, 1, 1], [1, 1, 1, 1, 1], [1, 1, 1, 1, 1]]","[5, 14, 4, 4, 3]",16,18,1,0.056,0.056,0,"[]",0,"none",5,5,4887,0,168,168,1647871611658233856,"attentional-mouselab",22,536623,4
"147","mouselab","False","[]","[[3, 4, 7, 1, 7], [4, 3, 5, 4, 7], [4, 3, 6, 6, 6], [5, 4, 3, 4, 7], [5, 8, 6, 4, 4]]","[[1, 1, 1, 1, 1], [1, 1, 1, 1, 1], [3, 1, 1, 1, 1], [3, 1, 1, 1, 3], [1, 1, 1, 1, 1]]","[10, 1, 7, 4, 8]",14,19,0,0.041,0.041,0,"[]",0,"none",5,5,4696,0,122,122,7480608889623448576,"attentional-mouselab",23,542703,4
"148","mouselab","False","[]","[[7, 2, 6, 3, 4], [4, 5, 6, 2, 7], [3, 4, 3, 3, 7], [2, 4, 5, 7, 7], [3, 5, 7, 4, 8]]","[[3, 3, 1, 1, 3], [1, 1, 3, 1, 1], [1, 1, 1, 1, 3], [1, 1, 1, 3, 1], [1, 1, 1, 1, 1]]","[2, 1, 5, 2, 20]",28,20,4,0.075,0.075,0,"[]",0,"greedy",5,5,7119,0,224,224,15051187860676743168,"attentional-mouselab",24,551494,4
"149","mouselab","False","[]","[[5, 4, 4, 2, 6], [7, 8, 6, 4, 7], [2, 4, 6, 8, 5], [6, 3, 7, 8, 5], [7, 6, 3, 2, 5]]","[[3, 3, 1, 1, 1], [3, 3, 3, 1, 1], [1, 1, 1, 1, 1], [1, 1, 1, 1, 1], [1, 3, 1, 1, 1]]","[3, 6, 3, 17, 1]",22,21,1,0.043,0.043,0,"[]",0,"greedy",5,5,5207,0,129,129,14710165058804750336,"attentional-mouselab",25,558334,4
"150","mouselab","False","[]","[[4, 5, 3, 6, 5], [3, 8, 9, 6, 1], [6, 4, 6, 7, 7], [4, 3, 4, 5, 5], [5, 7, 6, 1, 2]]","[[3, 1, 1, 1, 1], [1, 3, 1, 3, 1], [3, 1, 1, 1, 3], [1, 3, 1, 1, 1], [1, 1, 1, 1, 1]]","[8, 15, 3, 2, 2]",22,22,1,0.064,0.064,0,"[]",0,"greedy",5,5,5446,0,192,192,17063961193783664640,"attentional-mouselab",26,565630,4
"151","mouselab","False","[]","[[6, 7, 3, 7, 7], [5, 7, 7, 1, 6], [6, 1, 6, 5, 4], [8, 5, 7, 7, 6], [4, 3, 5, 9, 5]]","[[1, 1, 1, 1, 1], [1, 1, 3, 1, 1], [1, 3, 1, 1, 1], [1, 1, 1, 1, 3], [1, 1, 1, 1, 1]]","[4, 2, 3, 8, 13]",18,23,1,0.041,0.041,0,"[]",0,"none",5,5,4335,0,124,124,9969335053063653376,"attentional-mouselab",27,571558,4
"152","mouselab","False","[]","[[5, 8, 6, 3, 5], [7, 9, 7, 6, 5], [8, 8, 6, 2, 5], [4, 4, 2, 6, 7], [4, 4, 5, 4, 6]]","[[1, 1, 1, 3, 1], [1, 1, 3, 3, 1], [3, 1, 1, 3, 1], [1, 1, 1, 1, 1], [1, 3, 1, 1, 1]]","[2, 14, 7, 6, 1]",18,24,3,0.048,0.048,0,"[]",0,"greedy",5,5,4656,0,144,144,15023127968755107840,"attentional-mouselab",28,578190,4
"153","mouselab","False","[]","[[5, 4, 5, 6, 3], [6, 6, 6, 4, 6], [2, 7, 6, 3, 5], [5, 6, 7, 3, 5], [7, 3, 7, 6, 7]]","[[1, 1, 1, 1, 1], [1, 1, 3, 1, 1], [1, 3, 1, 1, 1], [1, 1, 1, 1, 1], [1, 1, 1, 1, 3]]","[1, 13, 5, 3, 8]",18,25,2,0.063,0.063,0,"[]",0,"none",5,5,5863,0,190,190,6161567426670481408,"attentional-mouselab",29,585895,4
"154","mouselab","False","[]","[[9, 5, 6, 4, 4], [6, 3, 4, 5, 6], [5, 4, 3, 4, 2], [6, 4, 6, 4, 2], [6, 5, 7, 3, 4]]","[[1, 1, 1, 3, 1], [1, 1, 1, 1, 1], [1, 1, 1, 1, 1], [1, 1, 1, 3, 1], [1, 1, 1, 3, 1]]","[11, 3, 3, 9, 4]",16,26,3,0.04,0.04,0,"[]",0,"none",5,5,3966,0,119,119,8950057657633610752,"attentional-mouselab",30,591527,4
"155","mouselab","False","[]","[[6, 6, 5, 5, 7], [4, 7, 6, 4, 5], [4, 2, 3, 5, 7], [4, 7, 5, 7, 5], [6, 4, 4, 5, 5]]","[[1, 1, 1, 3, 1], [1, 1, 1, 1, 1], [1, 1, 1, 3, 1], [1, 1, 1, 1, 1], [1, 3, 1, 1, 1]]","[5, 5, 2, 10, 8]",12,27,3,0.055,0.055,0,"[]",0,"none",5,5,4263,0,165,165,5467872383695175680,"attentional-mouselab",31,597831,4
"156","mouselab","False","[]","[[5, 5, 8, 5, 4], [1, 8, 5, 1, 2], [6, 6, 4, 7, 4], [4, 8, 5, 4, 7], [5, 5, 5, 4, 7]]","[[1, 1, 3, 1, 1], [1, 3, 1, 1, 1], [1, 1, 1, 3, 1], [1, 1, 1, 1, 3], [3, 1, 1, 1, 3]]","[7, 1, 2, 2, 18]",26,28,4,0.059,0.059,0,"[]",0,"greedy",5,5,4159,0,178,178,9917022588539158528,"attentional-mouselab",32,603734,4
"157","mouselab","False","[]","[[3, 3, 5, 6, 8], [2, 5, 5, 4, 6], [4, 6, 3, 6, 2], [7, 1, 4, 4, 8], [7, 4, 3, 3, 6]]","[[3, 1, 1, 1, 1], [1, 1, 1, 1, 1], [1, 1, 1, 3, 1], [1, 3, 1, 1, 1], [1, 1, 1, 1, 1]]","[1, 13, 4, 5, 7]",16,29,0,0.043,0.043,0,"[]",0,"none",5,5,4703,0,129,129,10194004430422517760,"attentional-mouselab",33,610278,4
"158","mouselab","False","[]","[[3, 6, 3, 10, 4], [7, 4, 4, 5, 3], [4, 6, 4, 3, 5], [4, 6, 5, 4, 4], [6, 7, 4, 7, 4]]","[[1, 1, 1, 1, 1], [1, 1, 3, 1, 1], [3, 3, 1, 1, 1], [1, 1, 1, 1, 1], [1, 1, 1, 1, 1]]","[1, 16, 2, 7, 4]",22,30,1,0.051,0.051,0,"[]",0,"none",5,5,4235,0,152,152,7246076870601843712,"attentional-mouselab",34,615918,4
"159","mouselab","False","[]","[[5, 5, 10, 7, 6], [9, 6, 6, 3, 5], [5, 4, 4, 5, 9], [7, 2, 3, 5, 6], [4, 6, 3, 8, 4]]","[[1, 1, 1, 1, 1], [3, 3, 3, 1, 1], [1, 1, 1, 1, 1], [1, 1, 3, 1, 1], [3, 3, 1, 1, 1]]","[2, 8, 6, 2, 12]",16,31,1,0.053,0.053,0,"[]",0,"greedy",5,5,6792,0,158,158,14527914624736106496,"attentional-mouselab",35,624199,4
"160","mouselab","False","[]","[[5, 4, 3, 4, 4], [3, 6, 6, 6, 5], [6, 4, 8, 3, 3], [6, 4, 5, 7, 5], [7, 8, 5, 5, 5]]","[[1, 1, 1, 1, 1], [1, 1, 1, 1, 3], [3, 3, 1, 1, 1], [1, 3, 3, 1, 3], [1, 1, 1, 1, 1]]","[6, 6, 7, 6, 5]",2,32,1,0.051,0.051,0,"[]",0,"greedy",5,5,5447,0,152,152,1.8204119949788e+19,"attentional-mouselab",36,631166,4
"161","mouselab","True","[15, 12, 3, 0, 5, 10, 20, 21, 16, 11, 6, 1, 2, 7, 17, 22, 23, 18, 13, 8, 4, 9, 14, 19, 24, 12, 3, 15]","[[4, 5, 6, 5, 6], [6, 5, 2, 5, 0], [3, 4, 6, 8, 4], [5, 4, 5, 4, 2], [5, 2, 6, 5, 7]]","[[1, 1, 1, 3, 1], [1, 1, 1, 1, 1], [1, 1, 3, 1, 1], [3, 1, 1, 1, 1], [1, 1, 1, 1, 1]]","[1, 5, 5, 3, 16]",20,1,1,0.031,0.0216666666666667,0.00933333333333333,"[0, 5, 10, 20, 21, 16, 11, 6, 1, 2, 7, 17, 22, 23, 18, 13, 8, 4, 9, 14, 19, 24]",22,"none",5,5,55238,28,94,66,8416058047084380160,"attentional-mouselab",4,347363,5
"162","mouselab","True","[]","[[9, 7, 7, 4, 3], [3, 3, 5, 5, 5], [6, 4, 5, 2, 5], [5, 6, 6, 3, 7], [6, 5, 6, 6, 8]]","[[3, 1, 1, 3, 1], [1, 1, 1, 1, 1], [1, 1, 1, 1, 3], [1, 1, 1, 1, 1], [1, 1, 1, 1, 1]]","[1, 2, 3, 4, 20]",28,2,0,0.058,0.058,0,"[]",0,"none",5,5,2799,0,173,173,8515806177328209920,"attentional-mouselab",5,354612,5
"163","mouselab","False","[]","[[4, 6, 4, 6, 5], [7, 5, 4, 6, 5], [4, 4, 8, 5, 5], [10, 6, 7, 4, 4], [5, 6, 3, 5, 3]]","[[1, 1, 1, 1, 3], [1, 1, 1, 1, 1], [1, 1, 1, 1, 3], [3, 1, 1, 1, 1], [1, 1, 1, 1, 1]]","[3, 8, 2, 4, 13]",18,3,4,0.04,0.04,0,"[]",0,"none",5,5,19495,0,120,120,4721201983313554432,"attentional-mouselab",7,435124,5
"164","mouselab","False","[]","[[8, 9, 4, 6, 6], [3, 6, 5, 5, 5], [9, 9, 0, 3, 3], [5, 3, 4, 7, 4], [6, 7, 7, 5, 6]]","[[3, 1, 1, 1, 1], [1, 3, 3, 1, 1], [3, 1, 1, 1, 1], [1, 3, 1, 1, 1], [1, 1, 3, 1, 1]]","[11, 8, 2, 1, 8]",18,4,1,0.075,0.075,0,"[]",0,"greedy",5,5,4447,0,224,224,16308469258597451776,"attentional-mouselab",8,441523,5
"165","mouselab","False","[]","[[4, 5, 6, 4, 6], [4, 3, 1, 4, 5], [4, 5, 7, 3, 4], [7, 5, 3, 8, 6], [1, 4, 6, 6, 5]]","[[1, 1, 3, 1, 1], [1, 1, 1, 3, 1], [3, 1, 1, 3, 3], [3, 1, 1, 1, 1], [1, 1, 1, 1, 1]]","[4, 2, 1, 15, 8]",22,5,3,0.065,0.065,0,"[]",0,"greedy",5,5,4438,0,195,195,10098903143823595520,"attentional-mouselab",9,447939,5
"166","mouselab","False","[]","[[5, 5, 6, 4, 5], [5, 9, 6, 7, 9], [6, 6, 4, 5, 6], [2, 5, 4, 6, 7], [7, 6, 2, 6, 8]]","[[1, 1, 1, 1, 3], [1, 1, 1, 1, 1], [1, 1, 1, 1, 1], [1, 1, 3, 1, 1], [1, 1, 1, 3, 1]]","[4, 9, 5, 1, 11]",16,6,2,0.041,0.041,0,"[]",0,"none",5,5,6111,0,124,124,11303603902418853888,"attentional-mouselab",10,455772,5
"167","mouselab","False","[]","[[5, 8, 4, 6, 3], [3, 7, 9, 5, 6], [4, 8, 6, 5, 6], [6, 3, 6, 5, 4], [4, 6, 7, 2, 7]]","[[1, 1, 3, 1, 1], [1, 1, 1, 1, 1], [1, 1, 1, 1, 1], [1, 1, 1, 3, 1], [1, 1, 1, 3, 1]]","[6, 8, 12, 2, 2]",16,7,3,0.05,0.05,0,"[]",0,"none",5,5,5063,0,150,150,1.5444226310337e+19,"attentional-mouselab",11,462587,5
"168","mouselab","False","[]","[[3, 5, 4, 6, 4], [7, 2, 6, 7, 4], [6, 7, 7, 5, 2], [6, 3, 3, 4, 5], [8, 3, 5, 6, 6]]","[[1, 1, 1, 3, 1], [1, 1, 1, 1, 3], [1, 1, 1, 1, 1], [1, 1, 3, 1, 1], [1, 1, 1, 1, 1]]","[7, 14, 6, 2, 1]",18,8,3,0.061,0.061,0,"[]",0,"none",5,5,5383,0,184,184,1.8444114056865e+19,"attentional-mouselab",12,469956,5
"169","mouselab","False","[]","[[5, 3, 5, 5, 6], [5, 7, 7, 7, 6], [4, 6, 9, 4, 3], [6, 5, 1, 7, 5], [4, 4, 6, 5, 7]]","[[1, 1, 1, 3, 1], [1, 1, 1, 3, 1], [1, 1, 1, 1, 1], [1, 1, 1, 1, 1], [1, 1, 1, 3, 1]]","[3, 5, 4, 16, 2]",20,9,3,0.063,0.063,0,"[]",0,"none",5,5,4895,0,188,188,11968573965968130048,"attentional-mouselab",13,476452,5
"170","mouselab","False","[]","[[5, 6, 4, 8, 8], [7, 6, 7, 5, 5], [5, 6, 7, 5, 10], [6, 8, 7, 5, 2], [4, 6, 5, 4, 7]]","[[1, 3, 1, 3, 1], [3, 1, 1, 1, 1], [1, 1, 3, 1, 3], [1, 1, 1, 3, 1], [1, 1, 1, 1, 1]]","[6, 8, 4, 9, 3]",10,10,3,0.055,0.055,0,"[]",0,"greedy",5,5,4911,0,165,165,2264565389002959872,"attentional-mouselab",14,483123,5
"171","mouselab","False","[]","[[6, 8, 6, 6, 2], [8, 7, 7, 5, 8], [6, 8, 7, 6, 4], [4, 6, 4, 6, 3], [2, 4, 4, 6, 7]]","[[3, 1, 3, 1, 3], [3, 1, 1, 1, 3], [1, 1, 3, 1, 1], [1, 1, 1, 1, 1], [1, 1, 1, 1, 1]]","[8, 11, 6, 2, 3]",14,11,0,0.062,0.062,0,"[]",0,"greedy",5,5,4824,0,186,186,14880011167431794688,"attentional-mouselab",15,489268,5
"172","mouselab","False","[]","[[5, 4, 5, 9, 6], [5, 5, 3, 4, 7], [6, 7, 6, 6, 6], [5, 1, 2, 5, 5], [6, 5, 5, 3, 6]]","[[1, 1, 3, 1, 1], [3, 3, 1, 3, 1], [3, 3, 1, 1, 1], [1, 1, 1, 1, 1], [1, 1, 1, 1, 1]]","[9, 10, 2, 6, 3]",14,12,1,0.04,0.04,0,"[]",0,"greedy",5,5,5911,0,121,121,9485319900610895872,"attentional-mouselab",16,496859,5
"173","mouselab","False","[]","[[5, 6, 6, 5, 8], [2, 10, 5, 7, 2], [4, 8, 5, 7, 7], [7, 6, 5, 4, 7], [5, 6, 4, 5, 7]]","[[1, 1, 1, 1, 1], [1, 1, 3, 3, 1], [1, 1, 1, 1, 3], [3, 1, 1, 3, 1], [3, 1, 1, 1, 1]]","[2, 2, 3, 20, 3]",28,13,0,0.06,0.06,0,"[]",0,"greedy",5,5,4577,0,181,181,11365331145913673728,"attentional-mouselab",17,502779,5
"174","mouselab","False","[]","[[5, 7, 8, 5, 3], [4, 6, 5, 5, 5], [5, 7, 2, 7, 2], [2, 4, 4, 4, 1], [8, 2, 2, 6, 7]]","[[1, 1, 1, 1, 1], [1, 1, 3, 1, 1], [3, 1, 1, 1, 1], [3, 1, 1, 1, 1], [1, 1, 1, 1, 1]]","[9, 7, 1, 9, 4]",14,14,0,0.043,0.043,0,"[]",0,"none",5,5,4544,0,128,128,18013860694801532928,"attentional-mouselab",18,508747,5
"175","mouselab","False","[]","[[3, 4, 5, 5, 4], [4, 7, 6, 9, 7], [5, 7, 1, 3, 7], [6, 7, 4, 4, 4], [5, 4, 6, 8, 4]]","[[1, 1, 1, 1, 3], [1, 1, 3, 3, 3], [1, 1, 1, 3, 3], [1, 1, 1, 1, 1], [1, 1, 1, 1, 1]]","[7, 4, 11, 5, 3]",12,15,4,0.055,0.055,0,"[]",0,"greedy",5,5,4262,0,165,165,5653133782605539328,"attentional-mouselab",19,515051,5
"176","mouselab","False","[]","[[4, 5, 6, 4, 5], [3, 5, 4, 6, 1], [7, 6, 3, 5, 5], [4, 5, 5, 2, 7], [6, 5, 7, 5, 5]]","[[1, 1, 3, 3, 1], [3, 1, 1, 1, 1], [1, 1, 1, 1, 1], [1, 1, 1, 1, 1], [1, 1, 1, 1, 1]]","[3, 5, 10, 8, 4]",12,16,2,0.045,0.045,0,"[]",0,"none",5,5,4710,0,136,136,15364294799721566208,"attentional-mouselab",20,521155,5
"177","mouselab","False","[]","[[4, 3, 6, 4, 5], [6, 4, 5, 7, 5], [7, 5, 5, 3, 7], [3, 8, 2, 5, 4], [6, 5, 4, 2, 5]]","[[1, 1, 1, 1, 1], [3, 1, 1, 3, 1], [1, 1, 1, 1, 1], [1, 1, 1, 1, 1], [3, 1, 1, 1, 1]]","[9, 8, 9, 3, 1]",16,17,2,0.05,0.05,0,"[]",0,"none",5,5,4159,0,149,149,14350786378715553792,"attentional-mouselab",21,529491,5
"178","mouselab","False","[]","[[3, 4, 6, 3, 4], [6, 8, 5, 5, 5], [5, 6, 4, 4, 8], [5, 6, 7, 4, 5], [4, 7, 7, 6, 8]]","[[1, 1, 1, 1, 1], [1, 1, 1, 1, 1], [1, 1, 1, 1, 1], [1, 3, 1, 1, 1], [1, 3, 1, 1, 3]]","[3, 5, 5, 15, 2]",18,18,1,0.062,0.062,0,"[]",0,"none",5,5,4007,0,186,186,1686035602591245312,"attentional-mouselab",22,536427,5
"179","mouselab","False","[]","[[5, 5, 5, 5, 3], [2, 1, 3, 7, 4], [5, 6, 7, 6, 7], [6, 1, 6, 5, 6], [5, 5, 7, 4, 3]]","[[1, 1, 1, 3, 1], [1, 1, 1, 1, 3], [1, 1, 1, 1, 1], [1, 1, 1, 1, 1], [1, 1, 3, 1, 1]]","[3, 5, 14, 4, 4]",16,19,4,0.054,0.054,0,"[]",0,"none",5,5,18174,0,163,163,5021460268398815232,"attentional-mouselab",23,556083,5
"180","mouselab","False","[]","[[8, 6, 6, 7, 6], [3, 2, 6, 4, 5], [5, 7, 6, 7, 3], [8, 3, 5, 4, 6], [8, 3, 4, 7, 2]]","[[1, 1, 3, 1, 3], [1, 1, 1, 1, 1], [3, 3, 1, 1, 1], [3, 1, 1, 1, 1], [1, 1, 3, 1, 1]]","[8, 3, 11, 2, 6]",14,20,0,0.064,0.064,0,"[]",0,"greedy",5,5,11535,0,192,192,18206481833886877696,"attentional-mouselab",24,568708,5
"181","mouselab","False","[]","[[7, 5, 7, 2, 7], [6, 5, 6, 6, 8], [4, 7, 5, 4, 8], [4, 4, 5, 5, 2], [6, 7, 6, 8, 5]]","[[1, 1, 3, 1, 1], [1, 1, 1, 1, 1], [3, 1, 1, 1, 1], [1, 1, 1, 1, 3], [1, 1, 1, 1, 1]]","[6, 3, 9, 10, 2]",14,21,2,0.056,0.056,0,"[]",0,"none",5,5,1167,0,167,167,10489746992623362048,"attentional-mouselab",25,571147,5
"182","mouselab","False","[]","[[5, 4, 7, 5, 5], [3, 6, 1, 5, 2], [5, 4, 6, 5, 4], [4, 7, 4, 6, 3], [6, 6, 6, 6, 5]]","[[3, 3, 1, 3, 1], [1, 1, 1, 1, 3], [1, 1, 1, 1, 3], [1, 1, 1, 3, 1], [1, 1, 1, 1, 1]]","[12, 7, 5, 4, 2]",14,22,4,0.039,0.039,0,"[]",0,"greedy",5,5,23863,0,116,116,14523633457988585472,"attentional-mouselab",26,596868,5
"183","mouselab","False","[]","[[6, 6, 7, 6, 1], [5, 8, 5, 5, 5], [7, 5, 5, 3, 4], [4, 6, 5, 1, 7], [6, 3, 0, 6, 5]]","[[1, 1, 1, 1, 1], [1, 1, 1, 1, 3], [1, 1, 1, 1, 1], [3, 1, 1, 1, 3], [1, 1, 1, 1, 1]]","[6, 1, 5, 11, 7]",12,23,2,0.042,0.042,0,"[]",0,"none",5,5,1686,0,127,127,9135365847844264960,"attentional-mouselab",27,600348,5
"184","mouselab","False","[]","[[4, 4, 5, 5, 7], [6, 7, 3, 3, 3], [5, 7, 7, 5, 6], [7, 5, 2, 3, 4], [6, 6, 5, 4, 7]]","[[1, 1, 1, 3, 1], [3, 1, 1, 1, 1], [1, 1, 3, 1, 3], [1, 1, 1, 1, 1], [3, 1, 1, 3, 1]]","[2, 6, 4, 7, 11]",12,24,3,0.038,0.038,0,"[]",0,"greedy",5,5,1039,0,113,113,12218475982679879680,"attentional-mouselab",28,603163,5
"185","mouselab","False","[]","[[4, 5, 4, 9, 3], [6, 6, 10, 6, 6], [8, 5, 3, 6, 7], [5, 2, 8, 5, 2], [5, 9, 7, 5, 7]]","[[3, 1, 1, 1, 1], [3, 3, 3, 1, 3], [1, 1, 3, 1, 1], [1, 1, 1, 1, 1], [1, 1, 1, 1, 1]]","[2, 6, 11, 3, 8]",14,25,0,0.062,0.062,0,"[]",0,"greedy",5,5,784,0,187,187,5464938880715356160,"attentional-mouselab",29,605387,5
"186","mouselab","False","[]","[[8, 4, 6, 6, 5], [5, 5, 6, 5, 5], [4, 7, 5, 5, 5], [2, 3, 3, 2, 6], [3, 4, 6, 2, 5]]","[[1, 1, 3, 1, 1], [1, 1, 1, 1, 1], [1, 1, 1, 1, 3], [1, 1, 1, 1, 1], [1, 1, 1, 3, 1]]","[8, 10, 4, 6, 2]",12,26,4,0.052,0.052,0,"[]",0,"none",5,5,1192,0,156,156,4289558540579638784,"attentional-mouselab",30,608075,5
"187","mouselab","False","[]","[[7, 4, 6, 1, 5], [7, 2, 4, 5, 3], [0, 3, 8, 4, 4], [3, 4, 4, 6, 4], [7, 7, 3, 4, 2]]","[[1, 3, 1, 1, 1], [1, 3, 3, 1, 1], [1, 1, 1, 1, 1], [1, 1, 3, 1, 1], [3, 3, 1, 1, 1]]","[6, 3, 9, 4, 8]",10,27,1,0.043,0.043,0,"[]",0,"greedy",5,5,1112,0,129,129,15066456532851509248,"attentional-mouselab",31,610684,5
"188","mouselab","False","[]","[[6, 3, 3, 7, 5], [5, 5, 2, 4, 2], [2, 4, 6, 8, 5], [6, 7, 6, 3, 6], [8, 5, 8, 7, 8]]","[[3, 1, 1, 1, 3], [1, 3, 1, 1, 1], [1, 3, 1, 1, 1], [1, 1, 1, 1, 1], [1, 1, 3, 1, 3]]","[6, 6, 1, 4, 13]",14,28,1,0.048,0.048,0,"[]",0,"greedy",5,5,4744,0,145,145,328815342963378624,"attentional-mouselab",32,617107,5
"189","mouselab","False","[]","[[6, 6, 4, 5, 4], [6, 4, 4, 3, 8], [2, 3, 5, 3, 7], [5, 3, 8, 5, 4], [5, 7, 5, 4, 3]]","[[1, 1, 1, 1, 1], [1, 1, 1, 1, 1], [1, 1, 1, 1, 1], [1, 1, 3, 1, 1], [3, 1, 1, 1, 3]]","[8, 13, 4, 3, 2]",18,29,0,0.053,0.053,0,"[]",0,"none",5,5,32880,0,159,159,12132615777069752320,"attentional-mouselab",33,651419,5
"190","mouselab","False","[]","[[4, 6, 10, 7, 7], [7, 4, 6, 5, 4], [5, 3, 6, 3, 3], [4, 6, 5, 3, 3], [2, 8, 6, 6, 4]]","[[1, 1, 1, 1, 1], [1, 1, 1, 1, 3], [3, 1, 1, 1, 1], [1, 1, 3, 1, 1], [1, 1, 1, 1, 1]]","[5, 6, 8, 3, 8]",8,30,4,0.041,0.041,0,"[]",0,"none",5,5,1071,0,124,124,14169366105891831808,"attentional-mouselab",34,653875,5
"191","mouselab","False","[]","[[3, 4, 5, 5, 5], [4, 6, 4, 5, 5], [3, 3, 3, 10, 4], [5, 3, 1, 5, 5], [6, 6, 5, 4, 5]]","[[1, 3, 1, 1, 1], [1, 1, 1, 1, 1], [1, 3, 3, 1, 3], [1, 1, 3, 1, 1], [1, 1, 1, 3, 1]]","[8, 3, 4, 14, 1]",20,31,1,0.037,0.037,0,"[]",0,"greedy",5,5,998,0,110,110,7885887210695700480,"attentional-mouselab",35,656340,5
"192","mouselab","False","[]","[[4, 5, 7, 5, 3], [7, 3, 5, 5, 8], [5, 3, 0, 3, 4], [5, 1, 4, 7, 6], [5, 5, 2, 6, 6]]","[[1, 1, 3, 1, 1], [3, 3, 3, 3, 1], [1, 1, 1, 1, 1], [1, 1, 1, 3, 1], [1, 1, 1, 1, 1]]","[10, 1, 7, 2, 10]",18,32,2,0.034,0.034,0,"[]",0,"greedy",5,5,791,0,103,103,1604640482174050816,"attentional-mouselab",36,658763,5
"193","mouselab","True","[]","[[4, 4, 6, 5, 5], [3, 4, 6, 6, 6], [3, 5, 6, 5, 7], [6, 6, 5, 3, 2], [2, 3, 7, 8, 5]]","[[1, 1, 1, 1, 1], [1, 3, 1, 1, 1], [1, 1, 1, 1, 1], [1, 1, 1, 1, 1], [1, 1, 1, 3, 3]]","[9, 3, 7, 9, 2]",14,1,2,0.058,0.058,0,"[]",0,"none",5,5,14692,0,173,173,7581992190865070080,"attentional-mouselab",4,349745,6
"194","mouselab","True","[10, 8, 17]","[[8, 6, 6, 5, 5], [6, 5, 4, 5, 5], [3, 5, 1, 7, 6], [7, 4, 6, 3, 6], [5, 2, 7, 7, 5]]","[[1, 1, 1, 1, 1], [1, 1, 1, 1, 1], [1, 1, 1, 1, 3], [1, 1, 1, 3, 1], [1, 3, 1, 1, 1]]","[8, 2, 11, 5, 4]",14,2,4,0.055,0.054,0.001,"[10, 8, 17]",3,"none",5,5,13002,3,166,163,7162207484006368256,"attentional-mouselab",5,367339,6
"195","mouselab","False","[]","[[6, 8, 4, 3, 7], [4, 4, 5, 1, 5], [4, 8, 6, 3, 2], [5, 6, 6, 10, 3], [5, 3, 5, 6, 3]]","[[1, 1, 1, 1, 3], [3, 3, 1, 1, 1], [1, 1, 3, 3, 1], [1, 1, 1, 1, 1], [1, 3, 1, 1, 1]]","[4, 6, 4, 13, 3]",14,3,1,0.058,0.058,0,"[]",0,"greedy",5,5,4849,0,175,175,14005207405926633472,"attentional-mouselab",7,385959,6
"196","mouselab","False","[]","[[6, 2, 2, 2, 6], [2, 7, 7, 5, 4], [5, 3, 5, 6, 4], [6, 4, 4, 8, 7], [4, 1, 4, 5, 8]]","[[1, 1, 1, 1, 1], [1, 3, 1, 1, 3], [1, 1, 3, 1, 3], [3, 1, 1, 1, 1], [1, 1, 1, 3, 1]]","[1, 2, 3, 18, 6]",24,4,4,0.067,0.067,0,"[]",0,"greedy",5,5,8417,0,200,200,14583755047045111808,"attentional-mouselab",8,401817,6
"197","mouselab","False","[]","[[4, 2, 5, 6, 5], [5, 7, 5, 7, 6], [7, 5, 6, 4, 2], [3, 1, 3, 5, 5], [5, 9, 9, 3, 2]]","[[1, 1, 1, 1, 1], [1, 1, 1, 1, 3], [1, 1, 1, 1, 3], [1, 1, 3, 1, 1], [1, 3, 1, 3, 3]]","[3, 5, 3, 6, 13]",14,5,4,0.036,0.036,0,"[]",0,"greedy",5,5,15183,0,107,107,16070687013166166016,"attentional-mouselab",9,419870,6
"198","mouselab","False","[]","[[6, 4, 7, 5, 3], [6, 9, 5, 5, 3], [5, 4, 6, 7, 6], [6, 6, 8, 6, 4], [7, 4, 5, 4, 2]]","[[1, 1, 1, 1, 3], [1, 1, 1, 1, 1], [3, 1, 1, 3, 1], [1, 1, 1, 1, 1], [1, 1, 1, 1, 1]]","[3, 4, 10, 6, 7]",10,6,1,0.051,0.051,0,"[]",0,"none",5,5,4457,0,152,152,9485500179182981120,"attentional-mouselab",10,426808,6
"199","mouselab","False","[]","[[4, 4, 6, 3, 4], [5, 3, 7, 4, 4], [5, 8, 6, 2, 5], [7, 7, 5, 9, 2], [4, 4, 4, 5, 5]]","[[3, 1, 1, 1, 1], [1, 1, 1, 1, 1], [1, 1, 1, 1, 1], [1, 1, 1, 1, 3], [1, 3, 1, 1, 1]]","[6, 3, 5, 12, 4]",12,7,2,0.054,0.054,0,"[]",0,"none",5,5,2714,0,163,163,12675175000745918464,"attentional-mouselab",11,431742,6
"200","mouselab","False","[]","[[3, 4, 6, 1, 6], [7, 7, 6, 7, 5], [5, 7, 3, 3, 6], [4, 2, 9, 7, 4], [5, 7, 6, 6, 8]]","[[1, 3, 1, 3, 1], [1, 1, 1, 1, 1], [1, 1, 1, 1, 1], [1, 1, 1, 1, 1], [1, 1, 3, 1, 1]]","[3, 9, 10, 5, 3]",14,8,4,0.056,0.056,0,"[]",0,"none",5,5,18857,0,167,167,9469575850467508224,"attentional-mouselab",12,452611,6
"201","mouselab","False","[]","[[8, 8, 2, 6, 8], [4, 7, 7, 5, 7], [3, 5, 5, 7, 5], [7, 6, 2, 7, 5], [5, 5, 7, 2, 5]]","[[3, 1, 1, 1, 3], [1, 1, 3, 3, 1], [1, 1, 1, 1, 1], [1, 3, 1, 1, 1], [1, 1, 3, 1, 1]]","[1, 8, 10, 5, 6]",12,9,3,0.054,0.054,0,"[]",0,"greedy",5,5,4309,0,163,163,2648793277241481216,"attentional-mouselab",13,459147,6
"202","mouselab","False","[]","[[2, 5, 2, 6, 4], [3, 6, 7, 5, 5], [3, 4, 6, 9, 7], [3, 6, 1, 6, 5], [5, 5, 7, 7, 5]]","[[1, 1, 1, 1, 3], [1, 1, 3, 1, 1], [1, 1, 1, 3, 3], [1, 1, 1, 1, 1], [3, 1, 3, 1, 1]]","[4, 8, 11, 1, 6]",14,10,1,0.049,0.049,0,"[]",0,"greedy",5,5,1670,0,148,148,1210954039721105664,"attentional-mouselab",14,462997,6
"203","mouselab","False","[]","[[4, 4, 2, 6, 7], [5, 7, 5, 5, 5], [4, 2, 5, 6, 6], [0, 5, 4, 2, 7], [6, 2, 4, 6, 5]]","[[1, 1, 1, 1, 1], [1, 1, 1, 1, 1], [1, 3, 1, 1, 1], [3, 1, 1, 1, 1], [3, 1, 1, 1, 1]]","[10, 8, 7, 3, 2]",14,11,3,0.053,0.053,0,"[]",0,"none",5,5,3162,0,160,160,10564652247666239488,"attentional-mouselab",15,468874,6
"204","mouselab","False","[]","[[5, 6, 4, 5, 3], [4, 5, 6, 5, 7], [7, 6, 4, 8, 3], [5, 8, 6, 6, 5], [2, 7, 6, 4, 5]]","[[1, 1, 1, 1, 1], [1, 1, 1, 1, 3], [3, 1, 1, 1, 1], [1, 1, 3, 1, 3], [1, 1, 3, 1, 3]]","[11, 2, 4, 7, 6]",12,12,4,0.041,0.041,0,"[]",0,"greedy",5,5,1693,0,124,124,1.1200984843886e+19,"attentional-mouselab",16,472229,6
"205","mouselab","False","[]","[[5, 4, 2, 3, 4], [8, 5, 6, 5, 5], [6, 4, 7, 6, 3], [7, 3, 6, 5, 8], [3, 5, 6, 5, 2]]","[[3, 1, 3, 1, 1], [1, 1, 3, 1, 1], [1, 1, 1, 1, 1], [1, 1, 3, 3, 3], [1, 1, 1, 1, 1]]","[7, 1, 6, 7, 9]",10,13,1,0.041,0.041,0,"[]",0,"greedy",5,5,1568,0,123,123,5770626554593462272,"attentional-mouselab",17,475776,6
"206","mouselab","False","[]","[[2, 7, 5, 4, 5], [3, 3, 4, 5, 5], [5, 2, 2, 4, 3], [4, 5, 4, 3, 4], [4, 4, 6, 5, 4]]","[[1, 3, 1, 1, 1], [1, 3, 1, 1, 1], [1, 1, 1, 1, 1], [3, 1, 1, 1, 1], [1, 1, 1, 1, 1]]","[9, 1, 9, 10, 1]",20,14,4,0.04,0.04,0,"[]",0,"none",5,5,1492,0,121,121,1960701923052653312,"attentional-mouselab",18,479146,6
"207","mouselab","False","[]","[[5, 5, 7, 5, 6], [1, 3, 3, 5, 7], [4, 4, 5, 6, 5], [4, 4, 6, 5, 4], [2, 4, 4, 4, 3]]","[[1, 3, 1, 3, 1], [3, 1, 1, 3, 1], [1, 1, 1, 1, 1], [1, 1, 1, 1, 3], [1, 3, 1, 1, 1]]","[8, 3, 9, 5, 5]",10,15,0,0.036,0.036,0,"[]",0,"greedy",5,5,1591,0,109,109,820883155645223296,"attentional-mouselab",19,482531,6
"208","mouselab","False","[]","[[5, 6, 3, 8, 2], [4, 7, 6, 5, 6], [2, 6, 3, 3, 4], [4, 5, 8, 4, 5], [4, 4, 4, 5, 4]]","[[1, 1, 1, 1, 1], [3, 1, 3, 1, 3], [1, 3, 1, 1, 1], [1, 1, 1, 1, 1], [1, 1, 3, 3, 1]]","[4, 8, 15, 2, 1]",22,16,3,0.043,0.043,0,"[]",0,"greedy",5,5,1671,0,130,130,3280235141302247424,"attentional-mouselab",20,486359,6
"209","mouselab","False","[]","[[5, 7, 4, 6, 4], [4, 6, 7, 4, 3], [3, 8, 4, 5, 2], [9, 4, 7, 4, 5], [4, 7, 6, 10, 5]]","[[1, 1, 3, 1, 1], [1, 1, 1, 1, 1], [1, 1, 1, 1, 1], [1, 1, 1, 3, 1], [1, 3, 1, 1, 1]]","[1, 9, 4, 14, 2]",22,17,2,0.064,0.064,0,"[]",0,"none",5,5,1530,0,193,193,10997619320914403328,"attentional-mouselab",21,490048,6
"210","mouselab","False","[]","[[4, 6, 6, 5, 5], [7, 7, 3, 5, 7], [5, 7, 4, 4, 6], [7, 7, 4, 4, 4], [5, 1, 6, 3, 4]]","[[1, 1, 1, 1, 1], [1, 3, 1, 1, 1], [3, 1, 1, 1, 1], [1, 1, 1, 1, 1], [1, 1, 3, 1, 1]]","[2, 2, 7, 7, 12]",16,18,3,0.037,0.037,0,"[]",0,"none",5,5,2021,0,112,112,8582242915473434624,"attentional-mouselab",22,493697,6
"211","mouselab","False","[]","[[7, 7, 4, 7, 6], [3, 3, 6, 3, 3], [4, 3, 3, 4, 5], [0, 3, 4, 6, 4], [5, 3, 7, 6, 8]]","[[1, 1, 1, 1, 1], [1, 1, 1, 3, 1], [1, 1, 1, 1, 1], [1, 1, 1, 1, 1], [3, 1, 1, 3, 1]]","[3, 2, 4, 15, 6]",18,19,1,0.034,0.034,0,"[]",0,"none",5,5,1624,0,102,102,12539465181294725120,"attentional-mouselab",23,497121,6
"212","mouselab","False","[]","[[5, 1, 6, 8, 6], [4, 3, 3, 7, 1], [3, 9, 2, 6, 6], [6, 3, 3, 4, 3], [10, 2, 5, 4, 3]]","[[3, 1, 1, 1, 3], [1, 1, 1, 1, 3], [1, 3, 1, 1, 1], [1, 3, 1, 1, 1], [1, 1, 3, 1, 1]]","[10, 12, 5, 2, 1]",20,20,2,0.039,0.039,0,"[]",0,"greedy",5,5,1405,0,117,117,12213560541454905344,"attentional-mouselab",24,500330,6
"213","mouselab","False","[]","[[4, 3, 6, 7, 5], [5, 6, 4, 2, 2], [3, 2, 6, 4, 3], [8, 8, 2, 7, 5], [4, 4, 8, 1, 4]]","[[1, 1, 1, 1, 1], [3, 1, 3, 1, 1], [1, 1, 1, 1, 1], [1, 1, 1, 1, 3], [1, 1, 1, 1, 1]]","[10, 10, 6, 1, 3]",16,21,0,0.043,0.043,0,"[]",0,"none",5,5,1222,0,128,128,7446369922652907520,"attentional-mouselab",25,503867,6
"214","mouselab","False","[]","[[4, 4, 2, 6, 6], [5, 4, 7, 5, 5], [7, 2, 7, 5, 5], [3, 6, 6, 4, 5], [3, 7, 7, 3, 5]]","[[1, 3, 1, 1, 1], [1, 3, 1, 1, 1], [3, 1, 1, 1, 1], [3, 1, 1, 1, 1], [1, 3, 1, 1, 3]]","[1, 5, 7, 9, 8]",12,22,2,0.065,0.065,0,"[]",0,"greedy",5,5,1552,0,196,196,10840426739200178176,"attentional-mouselab",26,507579,6
"215","mouselab","False","[]","[[7, 10, 4, 3, 5], [5, 3, 8, 5, 5], [6, 4, 2, 6, 6], [4, 6, 6, 4, 6], [3, 10, 5, 7, 3]]","[[1, 1, 3, 1, 1], [3, 1, 1, 1, 1], [1, 1, 1, 1, 1], [1, 1, 1, 1, 1], [1, 1, 1, 3, 1]]","[9, 7, 8, 4, 2]",12,23,3,0.047,0.047,0,"[]",0,"none",5,5,1523,0,140,140,12090067826799095808,"attentional-mouselab",27,511345,6
"216","mouselab","False","[]","[[5, 7, 4, 7, 8], [3, 4, 2, 7, 5], [5, 5, 4, 5, 7], [4, 1, 5, 6, 6], [4, 7, 1, 6, 5]]","[[1, 3, 1, 1, 1], [1, 1, 1, 1, 3], [1, 3, 3, 3, 1], [1, 1, 1, 1, 1], [1, 3, 1, 1, 1]]","[7, 2, 9, 11, 1]",18,24,1,0.04,0.04,0,"[]",0,"greedy",5,5,1437,0,120,120,15501115025949816832,"attentional-mouselab",28,515638,6
"217","mouselab","False","[]","[[7, 4, 6, 6, 4], [1, 3, 6, 7, 4], [6, 2, 4, 4, 5], [3, 7, 3, 3, 4], [5, 6, 7, 8, 4]]","[[1, 1, 1, 1, 1], [1, 1, 1, 3, 1], [1, 1, 1, 1, 1], [1, 1, 3, 1, 1], [1, 1, 1, 1, 3]]","[9, 7, 7, 5, 2]",10,25,4,0.042,0.042,0,"[]",0,"none",5,5,1431,0,127,127,6467729275810892800,"attentional-mouselab",29,519212,6
"218","mouselab","False","[]","[[4, 5, 3, 6, 7], [7, 5, 4, 3, 5], [9, 6, 1, 7, 3], [7, 4, 4, 5, 2], [5, 3, 6, 8, 5]]","[[1, 1, 1, 1, 3], [1, 1, 1, 1, 1], [1, 1, 1, 1, 1], [1, 1, 1, 1, 1], [3, 1, 1, 3, 1]]","[13, 10, 3, 3, 1]",22,26,1,0.049,0.049,0,"[]",0,"none",5,5,1632,0,148,148,1644015294906187008,"attentional-mouselab",30,522862,6
"219","mouselab","False","[]","[[6, 5, 7, 3, 5], [7, 4, 3, 4, 6], [1, 4, 4, 5, 6], [8, 6, 6, 4, 7], [5, 4, 6, 4, 4]]","[[1, 1, 1, 1, 1], [1, 1, 1, 1, 1], [1, 1, 3, 1, 1], [3, 1, 3, 1, 1], [1, 1, 1, 1, 1]]","[2, 5, 16, 3, 4]",20,27,2,0.045,0.045,0,"[]",0,"none",5,5,1779,0,135,135,5480529096170266624,"attentional-mouselab",31,526495,6
"220","mouselab","False","[]","[[4, 2, 4, 4, 1], [8, 5, 7, 6, 4], [7, 6, 5, 3, 2], [3, 6, 3, 7, 4], [5, 7, 7, 4, 1]]","[[1, 1, 1, 1, 3], [1, 1, 1, 3, 1], [1, 3, 1, 1, 1], [1, 1, 1, 1, 1], [1, 1, 1, 1, 1]]","[2, 7, 13, 5, 3]",16,28,3,0.045,0.045,0,"[]",0,"none",5,5,1663,0,136,136,7418272614230331392,"attentional-mouselab",32,529904,6
"221","mouselab","False","[]","[[8, 4, 6, 6, 5], [4, 3, 5, 6, 7], [6, 5, 2, 5, 5], [7, 2, 4, 10, 6], [4, 2, 6, 7, 7]]","[[3, 1, 1, 1, 1], [1, 1, 1, 1, 1], [1, 1, 1, 1, 1], [1, 1, 3, 1, 3], [1, 1, 1, 1, 1]]","[1, 2, 4, 5, 18]",24,29,0,0.049,0.049,0,"[]",0,"none",5,5,1411,0,147,147,14868342366039734272,"attentional-mouselab",33,533261,6
"222","mouselab","False","[]","[[8, 4, 6, 6, 5], [5, 5, 6, 5, 5], [4, 7, 5, 5, 5], [2, 3, 3, 2, 6], [3, 4, 6, 2, 5]]","[[1, 1, 3, 1, 1], [1, 1, 1, 1, 1], [3, 1, 3, 3, 3], [1, 1, 1, 1, 1], [1, 1, 1, 3, 1]]","[3, 10, 4, 4, 9]",14,30,3,0.038,0.038,0,"[]",0,"greedy",5,5,1171,0,114,114,4289558540579638784,"attentional-mouselab",34,536234,6
"223","mouselab","False","[]","[[2, 6, 7, 8, 3], [6, 5, 1, 5, 8], [4, 7, 6, 3, 6], [8, 6, 4, 3, 9], [8, 5, 5, 8, 1]]","[[1, 1, 3, 1, 1], [3, 1, 1, 1, 1], [1, 1, 3, 1, 1], [3, 1, 1, 1, 1], [1, 1, 3, 3, 1]]","[8, 2, 2, 8, 10]",16,31,4,0.045,0.045,0,"[]",0,"greedy",5,5,1405,0,134,134,318329075752294848,"attentional-mouselab",35,539432,6
"224","mouselab","False","[]","[[7, 5, 4, 6, 9], [2, 8, 5, 5, 6], [5, 7, 5, 8, 4], [6, 5, 7, 7, 2], [7, 5, 9, 5, 4]]","[[1, 1, 1, 1, 1], [3, 1, 1, 1, 1], [1, 3, 1, 1, 1], [3, 3, 3, 1, 1], [3, 1, 1, 1, 1]]","[4, 5, 12, 6, 3]",12,32,2,0.057,0.057,0,"[]",0,"greedy",5,5,2098,0,170,170,4937913594251673600,"attentional-mouselab",36,543493,6
"225","mouselab","True","[]","[[3, 6, 7, 2, 2], [5, 5, 3, 3, 8], [5, 3, 4, 7, 5], [6, 5, 5, 7, 6], [7, 7, 4, 0, 5]]","[[3, 1, 1, 1, 1], [1, 1, 1, 1, 1], [1, 1, 1, 1, 1], [3, 1, 1, 1, 1], [3, 1, 1, 1, 1]]","[12, 6, 3, 4, 5]",12,1,0,0.047,0.047,0,"[]",0,"none",5,5,2739,0,140,140,7772052631999813632,"attentional-mouselab",4,115921,7
"226","mouselab","True","[]","[[2, 4, 5, 3, 4], [3, 8, 3, 4, 3], [5, 3, 5, 2, 5], [4, 5, 5, 6, 4], [6, 3, 7, 9, 5]]","[[1, 1, 1, 1, 3], [1, 1, 1, 1, 1], [1, 1, 3, 1, 1], [1, 1, 1, 1, 1], [1, 1, 1, 3, 1]]","[7, 5, 2, 14, 2]",18,2,1,0.05,0.05,0,"[]",0,"none",5,5,2999,0,150,150,13727001401859903488,"attentional-mouselab",5,122820,7
"227","mouselab","False","[]","[[3, 7, 3, 4, 6], [8, 5, 4, 5, 2], [5, 4, 3, 4, 5], [8, 6, 5, 4, 4], [5, 7, 7, 4, 5]]","[[3, 1, 1, 1, 3], [3, 1, 1, 1, 1], [1, 1, 1, 1, 1], [1, 1, 1, 3, 1], [1, 1, 3, 1, 3]]","[12, 7, 5, 4, 2]",14,3,0,0.053,0.053,0,"[]",0,"greedy",5,5,1952,0,159,159,8027891597477778432,"attentional-mouselab",7,129851,7
"228","mouselab","False","[]","[[5, 9, 4, 4, 7], [8, 4, 5, 5, 2], [5, 7, 7, 5, 7], [4, 5, 7, 5, 5], [4, 5, 6, 2, 4]]","[[1, 1, 1, 3, 1], [1, 1, 1, 1, 1], [1, 1, 1, 1, 1], [1, 1, 1, 1, 1], [1, 1, 3, 3, 1]]","[4, 6, 2, 16, 2]",20,4,3,0.047,0.047,0,"[]",0,"none",5,5,2938,0,140,140,8338140336856982528,"attentional-mouselab",8,136271,7
"229","mouselab","False","[]","[[6, 2, 7, 4, 1], [7, 8, 5, 5, 1], [6, 5, 5, 5, 4], [5, 8, 7, 7, 6], [5, 3, 3, 7, 6]]","[[1, 1, 1, 1, 3], [1, 1, 3, 1, 1], [1, 1, 1, 1, 1], [1, 1, 1, 1, 1], [1, 1, 3, 1, 1]]","[3, 2, 8, 15, 2]",22,5,1,0.063,0.063,0,"[]",0,"none",5,5,1658,0,188,188,4570321611326046720,"attentional-mouselab",9,140402,7
"230","mouselab","False","[]","[[8, 0, 5, 3, 2], [7, 6, 6, 6, 4], [3, 2, 4, 6, 7], [3, 8, 5, 6, 5], [0, 9, 6, 7, 5]]","[[1, 1, 1, 1, 1], [3, 1, 1, 3, 1], [1, 1, 3, 1, 1], [1, 1, 1, 1, 1], [1, 1, 1, 1, 1]]","[2, 9, 13, 4, 2]",20,6,4,0.054,0.054,0,"[]",0,"none",5,5,2667,0,161,161,5468407655396789248,"attentional-mouselab",10,145198,7
"231","mouselab","False","[]","[[3, 4, 6, 3, 4], [6, 8, 5, 5, 5], [5, 6, 4, 4, 8], [5, 6, 7, 4, 5], [4, 7, 7, 6, 8]]","[[1, 1, 1, 1, 1], [1, 1, 1, 1, 1], [1, 1, 1, 1, 1], [1, 3, 1, 1, 1], [1, 3, 1, 1, 3]]","[1, 5, 9, 9, 6]",12,7,2,0.057,0.057,0,"[]",0,"none",5,5,1681,0,172,172,1686035602591245312,"attentional-mouselab",11,148812,7
"232","mouselab","False","[]","[[4, 5, 3, 4, 4], [4, 7, 3, 6, 6], [4, 5, 4, 6, 8], [6, 4, 4, 3, 7], [7, 6, 9, 7, 3]]","[[1, 1, 3, 1, 1], [3, 1, 3, 3, 1], [1, 1, 1, 1, 1], [3, 1, 3, 1, 1], [1, 1, 1, 1, 1]]","[5, 9, 2, 5, 9]",12,8,1,0.057,0.057,0,"[]",0,"greedy",5,5,1780,0,172,172,12083833918720086016,"attentional-mouselab",12,152672,7
"233","mouselab","False","[]","[[6, 4, 4, 6, 5], [5, 5, 5, 3, 6], [4, 3, 8, 6, 3], [5, 9, 5, 5, 6], [5, 4, 5, 6, 4]]","[[1, 3, 1, 1, 1], [1, 1, 1, 1, 1], [1, 1, 1, 1, 3], [1, 1, 1, 1, 1], [1, 3, 1, 1, 1]]","[5, 3, 11, 10, 1]",18,9,3,0.054,0.054,0,"[]",0,"none",5,5,1746,0,161,161,1.4667669516407e+19,"attentional-mouselab",13,156497,7
"234","mouselab","False","[]","[[8, 6, 2, 4, 6], [6, 7, 5, 6, 3], [5, 4, 8, 4, 6], [8, 3, 5, 5, 1], [6, 8, 3, 7, 5]]","[[1, 3, 1, 1, 3], [1, 1, 1, 1, 1], [1, 1, 3, 3, 1], [1, 1, 1, 1, 1], [1, 1, 3, 3, 1]]","[4, 2, 4, 6, 14]",16,10,0,0.065,0.065,0,"[]",0,"greedy",5,5,1731,0,196,196,3853881137259561984,"attentional-mouselab",14,160567,7
"235","mouselab","False","[]","[[5, 4, 9, 2, 5], [5, 6, 6, 3, 2], [4, 5, 8, 3, 6], [4, 4, 4, 7, 2], [3, 7, 4, 5, 4]]","[[1, 3, 1, 1, 1], [1, 1, 1, 3, 1], [1, 1, 1, 1, 1], [1, 1, 3, 3, 1], [1, 1, 3, 3, 1]]","[1, 8, 3, 3, 15]",22,11,0,0.038,0.038,0,"[]",0,"greedy",5,5,2125,0,114,114,17017486805535856640,"attentional-mouselab",15,164821,7
"236","mouselab","False","[]","[[9, 4, 5, 5, 7], [3, 3, 7, 4, 5], [9, 5, 6, 6, 0], [4, 3, 3, 4, 3], [5, 3, 4, 6, 5]]","[[1, 1, 3, 1, 1], [1, 1, 1, 1, 1], [1, 1, 1, 1, 1], [1, 1, 1, 3, 1], [1, 1, 3, 1, 1]]","[4, 7, 6, 2, 11]",12,12,1,0.035,0.035,0,"[]",0,"none",5,5,1596,0,106,106,11461228902520729600,"attentional-mouselab",16,168216,7
"237","mouselab","False","[]","[[4, 9, 4, 3, 3], [8, 6, 8, 7, 3], [9, 10, 6, 4, 5], [5, 6, 1, 5, 1], [6, 6, 4, 4, 4]]","[[1, 3, 1, 3, 1], [1, 1, 3, 3, 1], [3, 1, 1, 3, 1], [1, 1, 1, 1, 1], [1, 1, 1, 1, 1]]","[8, 11, 6, 3, 2]",14,13,4,0.033,0.033,0,"[]",0,"greedy",5,5,1941,0,98,98,3798676852965226496,"attentional-mouselab",17,172076,7
"238","mouselab","False","[]","[[4, 7, 5, 3, 4], [6, 8, 3, 4, 3], [6, 2, 6, 3, 4], [2, 7, 5, 6, 7], [5, 5, 6, 4, 5]]","[[1, 1, 3, 1, 1], [1, 1, 1, 1, 1], [1, 1, 1, 1, 3], [1, 1, 1, 1, 3], [1, 1, 1, 1, 1]]","[8, 8, 3, 1, 10]",16,14,2,0.049,0.049,0,"[]",0,"none",5,5,1805,0,147,147,16374714248785809408,"attentional-mouselab",18,175925,7
"239","mouselab","False","[]","[[5, 4, 5, 9, 5], [5, 6, 3, 9, 2], [8, 4, 5, 7, 5], [5, 3, 7, 6, 3], [8, 5, 4, 4, 3]]","[[1, 1, 1, 1, 1], [3, 3, 1, 1, 1], [3, 3, 1, 1, 1], [1, 1, 3, 1, 1], [1, 1, 1, 3, 1]]","[9, 1, 10, 7, 3]",16,15,3,0.071,0.071,0,"[]",0,"greedy",5,5,2322,0,214,214,438201557069549184,"attentional-mouselab",19,180189,7
"240","mouselab","False","[]","[[7, 4, 7, 6, 7], [5, 5, 3, 5, 4], [4, 5, 4, 7, 6], [3, 4, 5, 6, 8], [3, 6, 6, 6, 3]]","[[3, 1, 3, 1, 1], [1, 1, 1, 1, 1], [1, 1, 3, 3, 1], [1, 1, 1, 1, 1], [1, 3, 1, 3, 1]]","[8, 1, 11, 5, 5]",14,16,4,0.06,0.06,0,"[]",0,"greedy",5,5,2508,0,181,181,13186875252753911808,"attentional-mouselab",20,184556,7
"241","mouselab","False","[]","[[10, 3, 2, 5, 6], [3, 4, 3, 4, 4], [3, 5, 5, 4, 3], [6, 8, 1, 5, 7], [5, 3, 4, 9, 3]]","[[3, 1, 1, 1, 1], [1, 1, 1, 1, 1], [1, 1, 1, 3, 1], [1, 1, 1, 3, 1], [1, 1, 1, 1, 1]]","[12, 7, 5, 5, 1]",14,17,1,0.044,0.044,0,"[]",0,"none",5,5,1584,0,132,132,1.3346348961531e+19,"attentional-mouselab",21,187776,7
"242","mouselab","False","[]","[[6, 5, 7, 5, 5], [4, 2, 2, 3, 5], [7, 6, 6, 3, 6], [4, 4, 7, 7, 5], [4, 7, 7, 3, 7]]","[[1, 1, 1, 1, 1], [3, 1, 1, 1, 1], [1, 3, 1, 1, 1], [1, 3, 1, 1, 1], [1, 1, 1, 1, 1]]","[16, 2, 3, 4, 5]",20,18,2,0.066,0.066,0,"[]",0,"none",5,5,1512,0,197,197,17823353079095392256,"attentional-mouselab",22,191356,7
"243","mouselab","False","[]","[[5, 4, 6, 5, 2], [5, 7, 4, 3, 6], [4, 4, 8, 5, 2], [4, 5, 6, 0, 6], [4, 7, 7, 6, 5]]","[[1, 3, 1, 1, 1], [3, 1, 1, 1, 1], [1, 1, 3, 1, 1], [1, 1, 1, 1, 1], [1, 1, 1, 1, 1]]","[9, 9, 2, 8, 2]",16,19,3,0.031,0.031,0,"[]",0,"none",5,5,1399,0,94,94,4833823705833810944,"attentional-mouselab",23,194453,7
"244","mouselab","False","[]","[[6, 7, 4, 1, 4], [7, 6, 3, 6, 7], [6, 6, 3, 2, 4], [5, 5, 6, 5, 5], [5, 4, 3, 7, 3]]","[[1, 1, 3, 1, 1], [1, 1, 1, 1, 1], [3, 1, 1, 3, 1], [1, 1, 1, 1, 1], [1, 1, 1, 1, 1]]","[3, 6, 12, 7, 2]",14,20,0,0.059,0.059,0,"[]",0,"none",5,5,1561,0,177,177,15892992310415595520,"attentional-mouselab",24,197763,7
"245","mouselab","False","[]","[[1, 7, 8, 5, 5], [5, 7, 2, 7, 9], [3, 6, 4, 6, 5], [5, 4, 6, 3, 6], [5, 6, 4, 5, 6]]","[[1, 1, 3, 1, 3], [1, 3, 1, 3, 1], [1, 1, 3, 3, 1], [1, 1, 1, 1, 1], [1, 1, 1, 1, 1]]","[1, 8, 14, 4, 3]",20,21,2,0.039,0.039,0,"[]",0,"greedy",5,5,1693,0,116,116,13271864501394669568,"attentional-mouselab",25,201401,7
"246","mouselab","False","[]","[[3, 6, 3, 4, 1], [1, 2, 5, 6, 7], [5, 4, 5, 4, 6], [8, 3, 6, 5, 4], [2, 6, 2, 7, 7]]","[[1, 3, 1, 1, 1], [1, 1, 1, 1, 3], [1, 1, 1, 1, 1], [3, 3, 1, 1, 1], [1, 3, 3, 1, 1]]","[12, 6, 3, 8, 1]",16,22,2,0.044,0.044,0,"[]",0,"greedy",5,5,1721,0,131,131,17515280894450194432,"attentional-mouselab",26,204735,7
"247","mouselab","False","[]","[[5, 4, 6, 7, 4], [4, 6, 7, 5, 5], [3, 4, 1, 4, 7], [6, 5, 8, 5, 9], [6, 5, 6, 6, 8]]","[[3, 1, 1, 1, 1], [1, 1, 1, 1, 1], [1, 1, 3, 3, 1], [1, 1, 1, 1, 1], [1, 1, 1, 1, 1]]","[5, 5, 5, 6, 9]",6,23,0,0.05,0.05,0,"[]",0,"none",5,5,1535,0,150,150,8567400975673395200,"attentional-mouselab",27,208203,7
"248","mouselab","False","[]","[[2, 2, 3, 7, 4], [5, 6, 5, 5, 5], [5, 3, 7, 3, 5], [5, 3, 4, 4, 2], [3, 7, 6, 1, 4]]","[[3, 1, 3, 1, 1], [3, 1, 1, 1, 1], [1, 3, 1, 1, 3], [1, 1, 1, 1, 1], [1, 3, 1, 1, 1]]","[9, 4, 9, 7, 1]",14,24,2,0.048,0.048,0,"[]",0,"greedy",5,5,1890,0,144,144,10047033607863420928,"attentional-mouselab",28,211742,7
"249","mouselab","False","[]","[[6, 6, 5, 5, 4], [3, 2, 5, 6, 3], [4, 3, 7, 5, 8], [5, 6, 4, 6, 3], [6, 3, 7, 3, 10]]","[[1, 1, 1, 1, 1], [1, 1, 3, 3, 1], [1, 1, 1, 1, 1], [3, 1, 1, 1, 1], [1, 1, 1, 1, 1]]","[16, 9, 2, 1, 2]",26,25,0,0.049,0.049,0,"[]",0,"none",5,5,1649,0,148,148,5039279513083241472,"attentional-mouselab",29,215333,7
"250","mouselab","False","[]","[[7, 9, 8, 5, 5], [4, 5, 4, 2, 5], [8, 4, 6, 5, 6], [7, 8, 5, 5, 8], [2, 2, 7, 5, 0]]","[[3, 1, 3, 1, 1], [1, 1, 1, 1, 1], [1, 1, 3, 1, 3], [1, 1, 1, 3, 3], [1, 1, 1, 1, 1]]","[1, 9, 2, 3, 15]",24,26,3,0.041,0.041,0,"[]",0,"greedy",5,5,1844,0,123,123,1.5235081399674e+19,"attentional-mouselab",30,218925,7
"251","mouselab","False","[]","[[5, 5, 3, 3, 5], [4, 6, 4, 2, 4], [7, 8, 7, 6, 9], [7, 8, 7, 5, 7], [5, 3, 5, 4, 4]]","[[3, 3, 1, 1, 1], [3, 1, 1, 1, 1], [1, 1, 1, 1, 1], [1, 1, 1, 1, 1], [1, 1, 1, 1, 1]]","[5, 3, 6, 12, 4]",12,27,1,0.066,0.066,0,"[]",0,"none",5,5,1412,0,199,199,1218754629778904320,"attentional-mouselab",31,222144,7
"252","mouselab","False","[]","[[8, 7, 3, 5, 3], [8, 0, 7, 5, 6], [7, 5, 9, 2, 7], [8, 8, 5, 6, 4], [6, 3, 5, 5, 5]]","[[1, 1, 1, 1, 3], [1, 1, 3, 1, 1], [1, 1, 3, 1, 3], [1, 3, 1, 1, 1], [1, 1, 1, 3, 1]]","[6, 7, 11, 2, 4]",12,28,0,0.074,0.074,0,"[]",0,"greedy",5,5,1425,0,221,221,378478932387378688,"attentional-mouselab",32,225453,7
"253","mouselab","False","[]","[[4, 5, 6, 4, 5], [3, 5, 4, 6, 1], [7, 6, 3, 5, 5], [4, 5, 5, 2, 7], [6, 5, 7, 5, 5]]","[[1, 1, 3, 3, 1], [3, 1, 1, 1, 1], [1, 1, 1, 1, 1], [1, 1, 1, 1, 1], [1, 1, 1, 1, 1]]","[15, 7, 5, 2, 1]",20,29,1,0.052,0.052,0,"[]",0,"none",5,5,1621,0,155,155,15364294799721566208,"attentional-mouselab",33,228883,7
"254","mouselab","False","[]","[[6, 6, 6, 4, 4], [4, 6, 9, 6, 4], [4, 5, 8, 5, 6], [4, 4, 6, 5, 6], [4, 6, 7, 4, 3]]","[[1, 3, 3, 1, 1], [1, 1, 1, 1, 1], [1, 1, 1, 1, 3], [1, 1, 3, 1, 1], [3, 3, 1, 1, 1]]","[3, 7, 4, 13, 3]",16,30,3,0.05,0.05,0,"[]",0,"greedy",5,5,1549,0,151,151,3500937759077693440,"attentional-mouselab",34,232204,7
"255","mouselab","False","[]","[[7, 4, 5, 5, 1], [7, 8, 6, 6, 3], [4, 7, 7, 2, 5], [6, 6, 5, 7, 4], [5, 6, 7, 4, 6]]","[[1, 3, 1, 1, 1], [3, 1, 1, 3, 1], [3, 1, 3, 1, 1], [1, 1, 1, 3, 1], [1, 1, 1, 1, 1]]","[6, 10, 5, 6, 3]",8,31,1,0.064,0.064,0,"[]",0,"greedy",5,5,1821,0,193,193,12963056430850201600,"attentional-mouselab",35,236002,7
"256","mouselab","False","[]","[[7, 8, 5, 4, 4], [4, 5, 2, 5, 4], [3, 5, 6, 5, 7], [4, 6, 6, 8, 7], [6, 5, 4, 4, 4]]","[[3, 1, 1, 1, 1], [1, 1, 3, 1, 1], [1, 3, 3, 3, 1], [1, 1, 1, 1, 1], [3, 1, 1, 1, 1]]","[11, 3, 9, 3, 4]",16,32,1,0.062,0.062,0,"[]",0,"greedy",5,5,1954,0,186,186,4196731685912100864,"attentional-mouselab",36,242643,7
"257","mouselab","True","[1, 1, 12, 12, 9, 9, 0, 20, 21, 22, 23, 24]","[[6, 5, 5, 5, 3], [3, 5, 4, 9, 5], [8, 4, 6, 1, 1], [6, 4, 6, 5, 5], [5, 1, 3, 5, 7]]","[[1, 3, 1, 1, 1], [1, 1, 1, 1, 3], [1, 1, 3, 1, 1], [1, 1, 1, 1, 1], [1, 1, 1, 1, 1]]","[2, 2, 2, 4, 20]",28,1,0,0.053,0.049,0.004,"[0, 20, 21, 22, 23, 24]",6,"none",5,5,33747,12,158,146,11279851586350116864,"attentional-mouselab",4,168874,8
"258","mouselab","True","[10, 11, 12, 13, 14, 17, 18]","[[4, 6, 7, 4, 8], [8, 6, 4, 5, 5], [6, 5, 7, 7, 3], [5, 7, 6, 6, 8], [4, 3, 5, 4, 7]]","[[1, 1, 1, 3, 1], [3, 1, 1, 1, 1], [1, 1, 1, 1, 1], [1, 1, 1, 1, 1], [3, 1, 1, 1, 1]]","[1, 3, 12, 11, 3]",22,2,2,0.061,0.0586666666666667,0.00233333333333333,"[10, 11, 12, 13, 14, 17, 18]",7,"none",5,5,22263,7,184,177,17039858796487118848,"attentional-mouselab",5,194130,8
"259","mouselab","False","[20, 22, 23, 24]","[[6, 5, 6, 7, 7], [2, 4, 8, 4, 4], [7, 2, 6, 5, 4], [4, 6, 5, 4, 4], [8, 6, 5, 5, 5]]","[[1, 1, 1, 3, 3], [3, 3, 1, 3, 1], [1, 1, 1, 1, 1], [1, 1, 1, 1, 1], [1, 3, 1, 1, 1]]","[2, 2, 4, 1, 21]",30,3,0,0.072,0.0706666666666667,0.00133333333333333,"[20, 22, 23, 24]",4,"greedy",5,5,9586,4,216,212,5533955406716329984,"attentional-mouselab",7,209752,8
"260","mouselab","False","[10, 11, 12, 13, 14]","[[5, 8, 6, 4, 4], [8, 3, 4, 7, 5], [6, 5, 5, 6, 4], [3, 6, 5, 6, 6], [3, 4, 5, 5, 1]]","[[1, 1, 3, 3, 1], [3, 1, 1, 3, 1], [1, 1, 1, 1, 1], [1, 3, 1, 1, 1], [3, 1, 1, 1, 1]]","[4, 1, 12, 4, 9]",18,4,3,0.055,0.0533333333333333,0.00166666666666667,"[10, 11, 12, 13, 14]",5,"greedy",5,5,15148,5,164,159,1654498370935356928,"attentional-mouselab",8,227390,8
"261","mouselab","False","[15, 16, 17, 18, 19]","[[8, 6, 2, 4, 6], [6, 7, 5, 6, 3], [5, 4, 8, 4, 6], [8, 3, 5, 5, 1], [6, 8, 3, 7, 5]]","[[1, 3, 1, 1, 3], [1, 1, 1, 1, 1], [1, 1, 3, 3, 1], [1, 1, 1, 1, 1], [1, 1, 3, 3, 1]]","[6, 4, 3, 9, 8]",10,5,0,0.069,0.0673333333333333,0.00166666666666667,"[15, 16, 17, 18, 19]",5,"greedy",5,5,8862,5,207,202,3853881137259561984,"attentional-mouselab",9,238158,8
"262","mouselab","False","[5, 6, 16, 15]","[[2, 5, 4, 7, 8], [5, 6, 8, 6, 9], [6, 3, 5, 8, 3], [2, 5, 7, 5, 5], [5, 7, 1, 4, 8]]","[[1, 1, 1, 1, 1], [1, 1, 3, 3, 3], [1, 1, 1, 1, 1], [1, 1, 3, 1, 1], [3, 3, 1, 1, 1]]","[5, 9, 4, 9, 3]",12,6,1,0.052,0.0506666666666667,0.00133333333333333,"[5, 6, 16, 15]",4,"greedy",5,5,11488,4,157,153,859950972120488320,"attentional-mouselab",10,252576,8
"263","mouselab","False","[0, 1, 2, 3, 16, 17, 18, 18, 18]","[[3, 8, 4, 8, 3], [1, 5, 5, 4, 6], [2, 3, 4, 5, 6], [4, 6, 7, 5, 5], [7, 5, 5, 6, 6]]","[[1, 1, 1, 1, 3], [1, 1, 1, 1, 1], [1, 1, 1, 1, 3], [3, 1, 1, 3, 1], [3, 1, 1, 3, 1]]","[11, 3, 2, 12, 2]",22,7,1,0.064,0.061,0.003,"[0, 1, 2, 3, 16, 17, 18]",7,"greedy",5,5,19124,9,191,182,2574396870344547840,"attentional-mouselab",11,274624,8
"264","mouselab","False","[20, 21, 22, 23, 24, 18, 16, 16, 16, 15]","[[8, 4, 4, 5, 8], [6, 5, 8, 6, 7], [7, 5, 3, 5, 7], [3, 3, 5, 2, 6], [4, 5, 4, 5, 2]]","[[1, 1, 1, 1, 3], [1, 1, 3, 1, 1], [1, 1, 1, 1, 1], [1, 3, 1, 1, 1], [1, 1, 1, 1, 1]]","[1, 2, 1, 12, 14]",28,8,1,0.042,0.0386666666666667,0.00333333333333333,"[20, 21, 22, 23, 24, 18, 16, 15]",8,"none",5,5,17953,10,125,115,4142410028060204032,"attentional-mouselab",12,295586,8
"265","mouselab","False","[20, 21]","[[4, 5, 4, 9, 3], [6, 6, 10, 6, 6], [8, 5, 3, 6, 7], [5, 2, 8, 5, 2], [5, 9, 7, 5, 7]]","[[3, 1, 1, 1, 1], [1, 1, 3, 1, 1], [1, 1, 3, 1, 1], [1, 1, 1, 1, 1], [1, 1, 1, 1, 1]]","[6, 5, 7, 4, 8]",6,9,1,0.058,0.0573333333333333,0.000666666666666667,"[20, 21]",2,"none",5,5,7490,2,175,173,5464938880715356160,"attentional-mouselab",13,304861,8
"266","mouselab","False","[5, 6, 7, 8, 9]","[[7, 6, 8, 7, 4], [5, 6, 6, 5, 6], [6, 4, 4, 9, 6], [3, 5, 7, 3, 7], [5, 10, 7, 3, 4]]","[[1, 1, 3, 1, 1], [1, 1, 1, 1, 1], [1, 1, 3, 1, 1], [1, 1, 1, 3, 1], [1, 1, 1, 1, 1]]","[3, 20, 4, 2, 1]",28,10,4,0.058,0.0563333333333333,0.00166666666666667,"[5, 6, 7, 8, 9]",5,"none",5,5,8018,5,174,169,17857121947478865920,"attentional-mouselab",14,315515,8
"267","mouselab","False","[10, 11, 12, 13, 14, 18, 16, 15]","[[4, 7, 8, 5, 7], [7, 5, 6, 7, 3], [5, 5, 4, 6, 3], [6, 6, 7, 4, 7], [7, 9, 3, 5, 6]]","[[1, 1, 1, 1, 3], [1, 1, 1, 3, 1], [1, 1, 1, 1, 1], [1, 1, 3, 1, 3], [3, 3, 1, 1, 1]]","[2, 7, 11, 9, 1]",18,11,0,0.058,0.0553333333333333,0.00266666666666667,"[10, 11, 12, 13, 14, 18, 16, 15]",8,"greedy",5,5,9095,8,173,165,14093644290362738688,"attentional-mouselab",15,326169,8
"268","mouselab","False","[20, 21, 22, 23, 24, 24, 24, 10, 11]","[[4, 6, 5, 4, 4], [2, 5, 5, 2, 5], [6, 3, 8, 3, 5], [5, 6, 6, 5, 8], [5, 6, 4, 4, 4]]","[[1, 3, 1, 1, 1], [1, 3, 1, 1, 1], [1, 1, 1, 1, 1], [1, 1, 1, 1, 1], [1, 1, 1, 1, 3]]","[1, 1, 10, 3, 15]",26,12,0,0.052,0.049,0.003,"[20, 21, 22, 23, 24, 10, 11]",7,"none",5,5,12661,9,156,147,16990656045427613696,"attentional-mouselab",16,340493,8
"269","mouselab","False","[5, 7, 8, 9, 6, 6, 6, 12]","[[4, 4, 4, 5, 5], [5, 4, 5, 5, 4], [5, 4, 5, 4, 7], [7, 6, 4, 7, 7], [3, 8, 9, 5, 4]]","[[1, 1, 1, 1, 1], [1, 3, 1, 1, 1], [3, 1, 1, 1, 1], [3, 3, 1, 3, 1], [1, 3, 1, 1, 1]]","[1, 17, 5, 5, 2]",22,13,2,0.051,0.0483333333333333,0.00266666666666667,"[5, 7, 8, 9, 6, 12]",6,"greedy",5,5,10626,8,152,144,12386627497695526912,"attentional-mouselab",17,353270,8
"270","mouselab","False","[20, 21, 23, 24]","[[7, 2, 3, 7, 7], [7, 4, 5, 6, 6], [6, 6, 7, 6, 4], [4, 6, 4, 7, 4], [3, 4, 7, 4, 7]]","[[1, 1, 1, 1, 1], [1, 1, 3, 1, 1], [1, 1, 3, 1, 1], [1, 1, 1, 1, 1], [1, 1, 3, 1, 1]]","[1, 3, 4, 3, 19]",26,14,4,0.062,0.0606666666666667,0.00133333333333333,"[20, 21, 23, 24]",4,"none",5,5,4534,4,186,182,14745313648738578432,"attentional-mouselab",18,359925,8
"271","mouselab","False","[5, 6, 8, 9]","[[6, 5, 4, 6, 4], [4, 7, 2, 5, 6], [8, 6, 8, 7, 5], [8, 2, 6, 6, 5], [7, 8, 5, 6, 4]]","[[1, 3, 1, 1, 1], [1, 1, 3, 1, 1], [1, 1, 1, 1, 1], [1, 1, 3, 1, 1], [1, 1, 1, 1, 1]]","[3, 11, 2, 10, 4]",18,15,1,0.052,0.0506666666666667,0.00133333333333333,"[5, 6, 8, 9]",4,"none",5,5,7485,4,156,152,16352401265550688256,"attentional-mouselab",19,368960,8
"272","mouselab","False","[15, 16, 17]","[[4, 5, 5, 3, 6], [7, 4, 5, 5, 7], [5, 2, 4, 7, 5], [5, 5, 8, 6, 5], [7, 5, 7, 5, 6]]","[[1, 1, 1, 1, 1], [3, 3, 3, 3, 1], [1, 1, 1, 1, 3], [1, 1, 1, 3, 1], [1, 1, 1, 1, 1]]","[2, 8, 4, 10, 6]",12,16,2,0.063,0.062,0.001,"[15, 16, 17]",3,"greedy",5,5,7372,3,188,185,15603601656022536192,"attentional-mouselab",20,377914,8
"273","mouselab","False","[15, 16, 17, 18, 19]","[[4, 2, 4, 4, 1], [8, 5, 7, 6, 4], [7, 6, 5, 3, 2], [3, 6, 3, 7, 4], [5, 7, 7, 4, 1]]","[[1, 1, 1, 1, 3], [1, 1, 1, 3, 1], [1, 3, 1, 1, 1], [1, 1, 1, 1, 1], [1, 1, 1, 1, 1]]","[1, 4, 7, 11, 7]",14,17,3,0.051,0.0493333333333333,0.00166666666666667,"[15, 16, 17, 18, 19]",5,"none",5,5,4579,5,154,149,7418272614230331392,"attentional-mouselab",21,383886,8
"274","mouselab","False","[10, 11, 12, 14]","[[7, 5, 7, 6, 6], [6, 3, 6, 6, 6], [9, 6, 6, 8, 3], [8, 5, 5, 7, 5], [7, 7, 3, 3, 4]]","[[1, 1, 3, 1, 1], [1, 1, 1, 1, 1], [1, 1, 1, 3, 1], [1, 3, 1, 1, 3], [1, 3, 1, 1, 3]]","[2, 6, 12, 2, 8]",16,18,0,0.077,0.0756666666666667,0.00133333333333333,"[10, 11, 12, 14]",4,"greedy",5,5,4846,4,230,226,5458984685464721408,"attentional-mouselab",22,390150,8
"275","mouselab","False","[0, 1, 2, 3, 4]","[[7, 6, 0, 6, 7], [6, 5, 5, 4, 5], [6, 4, 5, 6, 5], [4, 6, 3, 5, 7], [5, 3, 2, 7, 5]]","[[1, 1, 1, 1, 1], [1, 1, 1, 1, 1], [1, 1, 3, 1, 1], [3, 1, 1, 1, 1], [1, 3, 1, 1, 1]]","[14, 6, 2, 7, 1]",18,19,0,0.06,0.0583333333333333,0.00166666666666667,"[0, 1, 2, 3, 4]",5,"none",5,5,6052,5,179,174,10293869367694718976,"attentional-mouselab",23,401448,8
"276","mouselab","False","[10, 11, 12, 12, 12, 13, 13, 13]","[[5, 4, 4, 5, 5], [6, 4, 6, 4, 4], [6, 6, 7, 4, 4], [5, 3, 7, 5, 4], [2, 2, 8, 7, 7]]","[[1, 1, 1, 1, 1], [1, 1, 1, 1, 1], [1, 1, 3, 3, 1], [1, 1, 3, 1, 1], [1, 1, 1, 1, 1]]","[5, 3, 10, 6, 6]",8,20,2,0.066,0.0633333333333333,0.00266666666666667,"[10, 11, 12, 13]",4,"none",5,5,6295,8,198,190,12295893045301923840,"attentional-mouselab",24,409226,8
"277","mouselab","False","[15, 16, 18, 19, 17, 17, 17]","[[5, 5, 2, 5, 3], [3, 7, 8, 5, 8], [3, 5, 7, 3, 3], [6, 2, 2, 3, 4], [7, 6, 5, 4, 5]]","[[1, 1, 1, 1, 1], [3, 1, 1, 1, 1], [1, 1, 1, 1, 1], [1, 1, 3, 1, 1], [1, 1, 1, 3, 1]]","[3, 2, 4, 18, 3]",24,21,0,0.054,0.0516666666666667,0.00233333333333333,"[15, 16, 18, 19, 17]",5,"none",5,5,5884,7,162,155,18211243522361085952,"attentional-mouselab",25,416877,8
