"","type","is_practice","click_values","payoff_matrix","cost_matrix","weights","weights_deviation","trial_num","selected_option","gross_earnings","net_earnings","click_cost","uncovered_values","experiment_type","trial_nudge","nudge_index","accepted_default","chose_nudge","og_baskets","actual_baskets","num_features","cost","reaction_time","trial_type","trial_index","time_elapsed","nudge_type","participant_id"
"1","mouselab","True","[1, 5, 3, 2, 0, 7, 9, 4, 8, 6]","[[6, 7, 3, 7, 2], [6, 5, 4, 2, 6]]","[[3, 3, 3, 3, 3], [3, 3, 3, 3, 3]]","[3, 17]",19.8,1,0,0.12,0.11,0.01,"[]","supersize","control",4,"False","False",5,5,2,4,26813,"implicit-mouselab",4,295209,"supersize",0
"2","mouselab","True","[2, 3, 5, 4, 6, 7, 9, 8, 0, 1]","[[6, 4], [6, 5], [5, 6], [4, 1], [6, 6]]","[[0, 0], [0, 0], [0, 0], [0, 0], [0, 0]]","[1, 4, 5, 3, 7]",18.75,2,1,0.099,0.089,0.01,"[2, 3, 5, 4, 6, 7, 9, 8, 0, 1]","supersize","control",1,"False","True",2,2,5,1,18165,"implicit-mouselab",5,316198,"supersize",0
"3","mouselab","False","[0, 7, 6, 3, 2, 1, 9, 4, 8, 5]","[[2, 3, 8, 5, 6], [6, 6, 6, 4, 6]]","[[0, 0, 0, 0, 0], [0, 0, 0, 0, 0]]","[11, 9]",19.8,5,0,0.076,0.066,0.01,"[0, 7, 6, 3, 2, 1, 9, 4, 8, 5]","supersize","control",3,"False","False",5,5,2,1,23494,"implicit-mouselab",7,344182,"supersize",0
"4","mouselab","False","[]","[[0, 4, 5, 5, 4], [5, 4, 4, 4, 4], [4, 7, 3, 4, 4], [5, 6, 6, 4, 4], [4, 7, 6, 6, 3]]","[[4, 4, 4, 4, 4], [4, 4, 4, 4, 4], [4, 4, 4, 4, 4], [4, 4, 4, 4, 4], [4, 4, 4, 4, 4]]","[4, 7, 3, 4, 2]",18.75,6,2,0.093,0.093,0,"[]","supersize","control",4,"False","False",5,5,5,4,1508,"implicit-mouselab",8,347313,"supersize",0
"5","mouselab","False","[]","[[3, 4], [7, 3]]","[[4, 4], [4, 4]]","[4, 16]",19.8,7,0,0.124,0.124,0,"[]","supersize","control",1,"False","False",2,2,2,4,1460,"implicit-mouselab",9,350305,"supersize",0
"6","mouselab","False","[]","[[8, 5, 6], [10, 7, 9], [6, 7, 7], [6, 8, 8], [6, 5, 4]]","[[4, 4, 4], [4, 4, 4], [4, 4, 4], [4, 4, 4], [4, 4, 4]]","[1, 1, 9, 7, 2]",18.75,8,2,0.142,0.142,0,"[]","supersize","pre-supersize",0,"False","False",2,3,5,4,1738,"implicit-mouselab",10,354227,"supersize",0
"7","mouselab","False","[]","[[5, 3, 10], [5, 4, 4], [4, 4, 7], [1, 6, 3], [6, 9, 6]]","[[4, 4, 4], [4, 4, 4], [4, 4, 4], [4, 4, 4], [4, 4, 4]]","[5, 2, 3, 2, 8]",18.75,9,0,0.097,0.097,0,"[]","supersize","post-supersize",2,"False","False",2,3,5,4,7752,"implicit-mouselab",11,367004,"supersize",0
"8","mouselab","False","[]","[[3, 5], [6, 4]]","[[1, 1], [1, 1]]","[9, 11]",19.8,10,0,0.093,0.093,0,"[]","supersize","control",1,"False","False",2,2,2,1,1576,"implicit-mouselab",12,371307,"supersize",0
"9","mouselab","False","[]","[[5, 6, 7], [2, 3, 6], [8, 5, 3], [2, 5, 5], [3, 5, 5]]","[[1, 1, 1], [1, 1, 1], [1, 1, 1], [1, 1, 1], [1, 1, 1]]","[1, 2, 3, 9, 5]",18.75,11,1,0.097,0.097,0,"[]","supersize","post-supersize",2,"False","False",2,3,5,1,2927,"implicit-mouselab",13,376138,"supersize",0
"10","mouselab","False","[]","[[5, 4, 1], [6, 6, 4]]","[[1, 1, 1], [1, 1, 1]]","[11, 9]",19.8,12,1,0.098,0.098,0,"[]","supersize","pre-supersize",0,"False","False",2,3,2,1,1450,"implicit-mouselab",14,381926,"supersize",0
"11","mouselab","False","[]","[[9, 6, 5, 4, 3], [5, 5, 6, 5, 5], [7, 5, 2, 7, 3], [7, 6, 4, 2, 5], [2, 6, 7, 6, 4]]","[[4, 4, 4, 4, 4], [4, 4, 4, 4, 4], [4, 4, 4, 4, 4], [4, 4, 4, 4, 4], [4, 4, 4, 4, 4]]","[1, 3, 10, 5, 1]",18.75,13,0,0.131,0.131,0,"[]","supersize","control",0,"False","True",5,5,5,4,1354,"implicit-mouselab",15,386379,"supersize",0
"12","mouselab","False","[]","[[4, 7, 6, 3, 7], [6, 7, 7, 7, 6]]","[[1, 1, 1, 1, 1], [1, 1, 1, 1, 1]]","[9, 11]",19.8,14,1,0.14,0.14,0,"[]","supersize","control",2,"False","False",5,5,2,1,1526,"implicit-mouselab",16,389776,"supersize",0
"13","mouselab","False","[]","[[5, 7], [4, 4]]","[[1, 1], [1, 1]]","[17, 3]",19.8,15,0,0.097,0.097,0,"[]","supersize","control",1,"False","False",2,2,2,1,1592,"implicit-mouselab",17,392727,"supersize",0
"14","mouselab","False","[]","[[5, 3, 4, 5, 5, 6], [3, 3, 9, 4, 5, 8]]","[[1, 1, 1, 1, 1, 1], [1, 1, 1, 1, 1, 1]]","[16, 4]",19.8,16,3,0.096,0.096,0,"[]","supersize","pre-supersize",1,"False","False",5,6,2,1,1509,"implicit-mouselab",18,400085,"supersize",0
"15","mouselab","False","[]","[[3, 7], [4, 7], [6, 5], [2, 3], [6, 5]]","[[1, 1], [1, 1], [1, 1], [1, 1], [1, 1]]","[5, 5, 6, 2, 2]",18.75,17,0,0.087,0.087,0,"[]","supersize","control",0,"False","True",2,2,5,1,1772,"implicit-mouselab",19,405019,"supersize",0
"16","mouselab","False","[]","[[5, 5, 8, 2, 6, 9], [2, 3, 6, 2, 2, 4]]","[[4, 4, 4, 4, 4, 4], [4, 4, 4, 4, 4, 4]]","[16, 4]",19.8,18,5,0.16,0.16,0,"[]","supersize","post-supersize",5,"False","True",5,6,2,4,8875,"implicit-mouselab",20,417260,"supersize",0
"17","mouselab","False","[]","[[7, 7, 4, 7, 5, 3], [4, 4, 6, 6, 6, 8], [5, 4, 3, 6, 5, 5], [4, 8, 4, 9, 5, 4], [4, 6, 4, 5, 6, 4]]","[[4, 4, 4, 4, 4, 4], [4, 4, 4, 4, 4, 4], [4, 4, 4, 4, 4, 4], [4, 4, 4, 4, 4, 4], [4, 4, 4, 4, 4, 4]]","[9, 5, 4, 1, 1]",18.75,19,5,0.095,0.095,0,"[]","supersize","pre-supersize",2,"False","False",5,6,5,4,3085,"implicit-mouselab",21,423248,"supersize",0
"18","mouselab","False","[]","[[4, 5, 5, 6, 5, 7], [6, 6, 5, 6, 4, 6], [4, 6, 6, 4, 6, 4], [3, 5, 4, 6, 7, 3], [5, 5, 5, 3, 4, 6]]","[[1, 1, 1, 1, 1, 1], [1, 1, 1, 1, 1, 1], [1, 1, 1, 1, 1, 1], [1, 1, 1, 1, 1, 1], [1, 1, 1, 1, 1, 1]]","[2, 5, 1, 6, 6]",18.75,20,5,0.102,0.102,0,"[]","supersize","post-supersize",5,"False","True",5,6,5,1,4273,"implicit-mouselab",22,430170,"supersize",0
"19","mouselab","False","[]","[[1, 4, 4], [8, 5, 7], [4, 6, 5], [1, 4, 5], [5, 6, 1]]","[[4, 4, 4], [4, 4, 4], [4, 4, 4], [4, 4, 4], [4, 4, 4]]","[3, 2, 4, 10, 1]",18.75,21,2,0.097,0.097,0,"[]","supersize","pre-supersize",2,"False","True",2,3,5,4,2139,"implicit-mouselab",23,433987,"supersize",0
"20","mouselab","False","[]","[[6, 8, 6, 7, 5, 3], [3, 4, 7, 5, 5, 2]]","[[1, 1, 1, 1, 1, 1], [1, 1, 1, 1, 1, 1]]","[5, 15]",19.8,22,1,0.1,0.1,0,"[]","supersize","post-supersize",5,"False","False",5,6,2,1,2341,"implicit-mouselab",24,437987,"supersize",0
"21","mouselab","False","[]","[[6, 5, 7, 6, 6], [2, 5, 5, 4, 3], [6, 4, 5, 7, 0], [6, 5, 8, 6, 2], [5, 4, 6, 5, 3]]","[[4, 4, 4, 4, 4], [4, 4, 4, 4, 4], [4, 4, 4, 4, 4], [4, 4, 4, 4, 4], [4, 4, 4, 4, 4]]","[3, 10, 2, 4, 1]",18.75,23,1,0.097,0.097,0,"[]","supersize","control",2,"False","False",5,5,5,4,1382,"implicit-mouselab",25,444222,"supersize",0
"22","mouselab","False","[]","[[4, 5], [3, 2]]","[[4, 4], [4, 4]]","[6, 14]",19.8,24,0,0.066,0.066,0,"[]","supersize","control",1,"False","False",2,2,2,4,1489,"implicit-mouselab",26,447878,"supersize",0
"23","mouselab","True","[5, 6, 7, 8, 9, 1]","[[5, 9, 6, 8, 6], [5, 7, 6, 3, 6]]","[[1, 0, 1, 1, 1], [0, 0, 0, 0, 0]]","[6, 14]",19.8,1,1,0.152,0.146,0.006,"[5, 6, 7, 8, 9, 1]","supersize","control",3,"False","False",5,5,2,1,13245,"implicit-mouselab",4,337100,"supersize",4
"24","mouselab","True","[2, 3, 2, 2, 2, 3, 3, 3, 6, 6, 6, 6, 4, 4, 4, 4]","[[8, 5], [5, 4], [3, 5], [4, 4], [6, 6]]","[[4, 4], [0, 0], [0, 4], [0, 4], [4, 4]]","[2, 8, 4, 4, 2]",18.75,2,1,0.09,0.074,0.016,"[2, 3, 6, 4]","supersize","control",1,"False","True",2,2,5,4,20298,"implicit-mouselab",5,364348,"supersize",4
"25","mouselab","False","[5, 6, 7, 8, 9, 20, 21]","[[6, 8, 9, 6, 3], [4, 4, 4, 3, 1], [5, 3, 6, 5, 6], [4, 4, 5, 4, 3], [4, 7, 3, 5, 6]]","[[1, 1, 1, 1, 1], [0, 0, 0, 0, 0], [1, 1, 1, 1, 1], [1, 1, 1, 1, 1], [0, 0, 1, 1, 1]]","[1, 12, 1, 2, 4]",18.75,5,1,0.095,0.088,0.007,"[5, 6, 7, 8, 9, 20, 21]","supersize","control",4,"False","False",5,5,5,1,10392,"implicit-mouselab",7,380764,"supersize",4
"26","mouselab","False","[0, 0, 1, 2, 3, 4, 9, 5]","[[5, 5, 6, 8, 5, 5], [5, 3, 7, 5, 3, 7], [5, 8, 6, 7, 5, 3], [5, 2, 6, 5, 5, 6], [6, 3, 4, 5, 2, 5]]","[[0, 0, 0, 0, 0, 0], [1, 1, 1, 0, 1, 1], [1, 1, 1, 1, 1, 1], [1, 1, 1, 1, 1, 1], [1, 1, 1, 1, 1, 1]]","[6, 5, 2, 1, 6]",18.75,6,3,0.122,0.115,0.007,"[0, 1, 2, 3, 4, 9, 5]","supersize","post-supersize",5,"False","False",5,6,5,1,13067,"implicit-mouselab",8,398928,"supersize",4
"27","mouselab","False","[24, 25, 26, 27, 28, 29, 18, 6]","[[2, 6, 7, 5, 4, 5], [7, 5, 5, 3, 6, 6], [6, 3, 4, 6, 3, 6], [3, 3, 2, 5, 7, 4], [7, 5, 4, 4, 5, 6]]","[[1, 1, 1, 1, 1, 1], [0, 1, 1, 1, 1, 1], [1, 1, 1, 1, 1, 1], [0, 1, 1, 1, 1, 1], [0, 0, 0, 0, 0, 0]]","[3, 4, 2, 5, 6]",18.75,7,0,0.103,0.095,0.008,"[24, 25, 26, 27, 28, 29, 18, 6]","supersize","pre-supersize",1,"False","False",5,6,5,1,12570,"implicit-mouselab",9,421504,"supersize",4
"28","mouselab","False","[10, 11, 12, 13, 14, 4, 3, 2, 1, 0]","[[7, 8, 6, 3, 6], [4, 8, 4, 4, 4], [5, 5, 5, 4, 3], [7, 4, 2, 2, 6], [4, 6, 3, 5, 8]]","[[0, 0, 0, 0, 0], [1, 1, 1, 1, 1], [0, 0, 0, 0, 0], [1, 1, 1, 1, 1], [1, 1, 1, 1, 1]]","[6, 4, 6, 1, 3]",18.75,8,1,0.132,0.122,0.01,"[10, 11, 12, 13, 14, 4, 3, 2, 1, 0]","supersize","control",4,"False","False",5,5,5,1,11925,"implicit-mouselab",10,437377,"supersize",4
"29","mouselab","False","[18, 19, 18, 18, 18, 19, 19, 19, 19, 20, 20, 20, 20, 21, 21, 21, 21, 21, 22, 22, 22, 22, 23, 23, 23, 23]","[[5, 4, 4, 2, 4, 7], [2, 3, 6, 4, 5, 5], [4, 3, 7, 6, 5, 7], [3, 4, 4, 8, 4, 5], [4, 6, 4, 4, 7, 7]]","[[4, 4, 4, 4, 4, 4], [4, 4, 4, 4, 4, 4], [4, 4, 4, 4, 4, 4], [0, 0, 0, 0, 0, 0], [4, 4, 4, 4, 4, 4]]","[2, 3, 1, 8, 6]",18.75,9,3,0.11,0.086,0.024,"[18, 19, 20, 21, 22, 23]","supersize","post-supersize",5,"False","False",5,6,5,4,15792,"implicit-mouselab",11,454988,"supersize",4
"30","mouselab","False","[8, 8, 8, 8, 9, 9, 9, 9, 5]","[[5, 6], [7, 6], [7, 4], [5, 9], [4, 8]]","[[4, 4], [4, 4], [4, 3], [4, 4], [0, 0]]","[2, 2, 5, 4, 7]",18.75,10,1,0.136,0.127,0.009,"[8, 9]","supersize","control",0,"False","False",2,2,5,4,7799,"implicit-mouselab",12,467999,"supersize",4
"31","mouselab","False","[18, 18, 18, 18, 19, 19, 19, 19, 19, 20, 20, 20, 20, 20, 21, 21, 21, 21, 22, 22, 22, 22, 23, 23, 23, 23]","[[2, 6, 8, 4, 3, 5], [6, 7, 3, 7, 7, 8], [4, 6, 6, 4, 3, 4], [5, 4, 3, 5, 5, 4], [7, 6, 5, 8, 4, 6]]","[[4, 4, 4, 4, 4, 4], [4, 4, 4, 4, 4, 4], [4, 4, 4, 4, 4, 4], [0, 0, 0, 0, 0, 0], [4, 4, 4, 4, 4, 4]]","[2, 6, 2, 9, 1]",18.75,11,4,0.103,0.079,0.024,"[18, 19, 20, 21, 22, 23]","supersize","pre-supersize",4,"False","True",5,6,5,4,15590,"implicit-mouselab",13,486072,"supersize",4
"32","mouselab","False","[2, 2, 2, 2, 3, 3, 3, 3]","[[5, 3], [5, 1]]","[[4, 4], [0, 0]]","[9, 11]",19.8,12,0,0.1,0.092,0.008,"[2, 3]","supersize","control",0,"False","True",2,2,2,4,5843,"implicit-mouselab",14,493508,"supersize",4
"33","mouselab","False","[1, 1, 1, 1, 2, 2, 2, 2]","[[8, 6, 4], [6, 1, 3]]","[[4, 0, 0], [4, 4, 4]]","[11, 9]",19.8,13,0,0.142,0.134,0.008,"[1, 2]","supersize","pre-supersize",0,"False","True",2,3,2,4,6235,"implicit-mouselab",15,501011,"supersize",4
"34","mouselab","False","[0, 0, 0, 0]","[[4, 4], [6, 6]]","[[0, 4], [4, 4]]","[11, 9]",19.8,14,1,0.098,0.094,0.004,"[0]","supersize","control",1,"False","True",2,2,2,4,3454,"implicit-mouselab",16,507036,"supersize",4
"35","mouselab","False","[12, 16, 17, 17, 17, 17, 17, 16, 16, 16, 16, 16, 15, 15, 15, 15, 15, 15, 14, 14, 14, 14, 14, 13, 13, 13, 13, 13, 12, 12, 12, 12]","[[3, 5, 4, 6, 5, 6], [7, 6, 4, 6, 4, 7], [7, 4, 4, 7, 3, 6], [2, 2, 8, 5, 4, 3], [5, 7, 3, 4, 5, 7]]","[[4, 4, 4, 4, 4, 4], [4, 4, 4, 4, 4, 4], [0, 0, 0, 0, 0, 0], [4, 4, 4, 4, 4, 4], [4, 4, 4, 4, 4, 4]]","[2, 4, 10, 3, 1]",18.75,15,0,0.115,0.091,0.024,"[17, 16, 15, 14, 13, 12]","supersize","pre-supersize",5,"False","False",5,6,5,4,13649,"implicit-mouselab",17,523120,"supersize",4
"36","mouselab","False","[]","[[5, 4, 2, 6, 5, 4], [3, 5, 4, 7, 5, 8]]","[[4, 4, 4, 4, 4, 4], [4, 4, 4, 4, 4, 4]]","[13, 7]",19.8,16,4,0.1,0.1,0,"[]","supersize","pre-supersize",4,"False","True",5,6,2,4,6731,"implicit-mouselab",18,531007,"supersize",4
"37","mouselab","False","[3, 3, 4, 5]","[[6, 1, 6], [4, 7, 5]]","[[1, 1, 1], [0, 0, 0]]","[2, 18]",19.8,17,1,0.128,0.125,0.003,"[3, 4, 5]","supersize","post-supersize",2,"False","False",2,3,2,1,6583,"implicit-mouselab",19,539244,"supersize",4
"38","mouselab","False","[0, 0, 0, 0, 1, 1, 1, 1]","[[5, 3], [7, 3], [8, 6], [4, 4], [3, 4]]","[[0, 0], [4, 4], [4, 4], [4, 4], [4, 4]]","[6, 4, 3, 2, 5]",18.75,18,0,0.105,0.097,0.008,"[0, 1]","supersize","control",1,"False","False",2,2,5,4,5393,"implicit-mouselab",20,546660,"supersize",4
"39","mouselab","False","[2, 3]","[[5, 1], [4, 5]]","[[1, 1], [0, 0]]","[4, 16]",19.8,19,1,0.084,0.082,0.002,"[2, 3]","supersize","control",0,"False","False",2,2,2,1,3042,"implicit-mouselab",21,550908,"supersize",4
"40","mouselab","False","[2, 3]","[[7, 6], [4, 6]]","[[1, 1], [0, 0]]","[1, 19]",19.8,20,1,0.12,0.118,0.002,"[2, 3]","supersize","control",0,"False","False",2,2,2,1,2611,"implicit-mouselab",22,554580,"supersize",4
"41","mouselab","False","[12, 12, 13, 14, 15, 16, 8, 6, 17]","[[5, 4, 3, 4, 6, 8], [3, 5, 6, 8, 5, 7], [6, 3, 6, 4, 4, 5], [5, 2, 2, 0, 3, 5], [5, 3, 7, 6, 3, 5]]","[[1, 1, 1, 1, 1, 1], [0, 1, 0, 1, 1, 1], [0, 0, 0, 0, 0, 0], [1, 1, 1, 1, 1, 1], [1, 1, 1, 1, 1, 1]]","[2, 4, 10, 2, 2]",18.75,21,2,0.108,0.1,0.008,"[12, 13, 14, 15, 16, 8, 6, 17]","supersize","post-supersize",5,"False","False",5,6,5,1,13257,"implicit-mouselab",23,569912,"supersize",4
"42","mouselab","False","[0, 1, 2, 3, 4, 5, 6, 7, 8, 9, 10]","[[8, 3, 8, 3, 7, 5], [4, 4, 7, 4, 1, 6]]","[[0, 0, 0, 0, 0, 0], [0, 0, 0, 0, 0, 1]]","[10, 10]",19.8,22,2,0.15,0.139,0.011,"[0, 1, 2, 3, 4, 5, 6, 7, 8, 9, 10]","supersize","post-supersize",5,"False","False",5,6,2,1,16675,"implicit-mouselab",24,587775,"supersize",4
"43","mouselab","False","[0, 0, 0, 0]","[[6, 3], [6, 5]]","[[0, 4], [4, 4]]","[11, 9]",19.8,23,1,0.078,0.074,0.004,"[0]","supersize","control",1,"False","True",2,2,2,4,5226,"implicit-mouselab",25,595420,"supersize",4
"44","mouselab","False","[2, 3]","[[2, 7], [4, 7]]","[[1, 1], [0, 0]]","[5, 15]",19.8,24,1,0.14,0.138,0.002,"[2, 3]","supersize","control",1,"False","True",2,2,2,1,3079,"implicit-mouselab",26,599532,"supersize",4
"45","mouselab","True","[1, 6, 9]","[[6, 6], [7, 6], [6, 7], [2, 2], [7, 6]]","[[1, 0], [1, 1], [1, 1], [0, 1], [1, 0]]","[1, 8, 5, 4, 2]",18.75,1,1,0.109,0.106,0.003,"[1, 6, 9]","supersize","control",1,"False","True",2,2,5,1,11625,"implicit-mouselab",4,189054,"supersize",12
"46","mouselab","True","[4, 4, 4, 4, 1, 1, 1, 1]","[[5, 7, 1, 5, 6], [4, 7, 6, 4, 5]]","[[4, 0, 4, 4, 0], [4, 4, 4, 4, 4]]","[7, 13]",19.8,2,1,0.14,0.132,0.008,"[4, 1]","supersize","control",1,"False","True",5,5,2,4,13694,"implicit-mouselab",5,206526,"supersize",12
"47","mouselab","False","[27, 9, 25, 23]","[[6, 4, 6, 6, 5, 4], [5, 4, 6, 8, 4, 3], [4, 3, 4, 4, 4, 4], [6, 5, 3, 5, 6, 5], [4, 5, 4, 6, 3, 5]]","[[1, 1, 1, 1, 1, 1], [1, 1, 1, 0, 1, 1], [1, 1, 1, 1, 1, 1], [1, 1, 1, 1, 1, 1], [1, 0, 1, 0, 1, 1]]","[2, 4, 5, 2, 7]",18.75,5,3,0.116,0.113,0.003,"[27, 9, 25]","supersize","post-supersize",5,"False","False",5,6,5,1,24314,"implicit-mouselab",7,238859,"supersize",12
"48","mouselab","False","[1, 1, 1, 1, 4, 4, 4, 4]","[[6, 4, 4, 8, 5, 8], [5, 5, 4, 5, 6, 4], [7, 5, 9, 10, 3, 5], [6, 7, 3, 4, 7, 5], [3, 3, 6, 8, 4, 6]]","[[4, 0, 4, 4, 0, 4], [4, 4, 4, 4, 4, 4], [4, 4, 4, 4, 4, 4], [4, 4, 4, 4, 4, 4], [4, 4, 4, 4, 4, 4]]","[7, 2, 3, 4, 4]",18.75,6,5,0.123,0.115,0.008,"[1, 4]","supersize","post-supersize",5,"False","True",5,6,5,4,13216,"implicit-mouselab",8,255221,"supersize",12
"49","mouselab","False","[]","[[3, 5], [4, 6], [8, 8], [3, 4], [4, 6]]","[[1, 1], [1, 1], [1, 1], [1, 1], [1, 1]]","[4, 5, 1, 5, 5]",18.75,7,1,0.108,0.108,0,"[]","supersize","control",1,"False","True",2,2,5,1,5422,"implicit-mouselab",9,263277,"supersize",12
"50","mouselab","False","[1, 1, 1, 1, 3, 3, 3, 3, 0, 0, 0, 0]","[[5, 8, 5, 4, 7], [8, 7, 2, 6, 4]]","[[0, 0, 4, 0, 4], [4, 4, 4, 4, 4]]","[19, 1]",19.8,8,2,0.097,0.085,0.012,"[1, 3, 0]","supersize","control",4,"False","False",5,5,2,4,14165,"implicit-mouselab",10,280062,"supersize",12
"51","mouselab","False","[]","[[6, 4], [3, 6]]","[[4, 4], [4, 4]]","[17, 3]",19.8,9,1,0.086,0.086,0,"[]","supersize","control",0,"False","False",2,2,2,4,2687,"implicit-mouselab",11,284958,"supersize",12
"52","mouselab","False","[]","[[6, 3], [5, 6]]","[[4, 4], [4, 4]]","[15, 5]",19.8,10,0,0.115,0.115,0,"[]","supersize","control",0,"False","True",2,2,2,4,2616,"implicit-mouselab",12,289335,"supersize",12
"53","mouselab","False","[9, 11, 7, 8]","[[6, 4, 4, 6, 3, 3], [7, 2, 3, 5, 6, 5]]","[[1, 1, 1, 1, 1, 1], [1, 0, 0, 0, 1, 0]]","[4, 16]",19.8,11,3,0.104,0.1,0.004,"[9, 11, 7, 8]","supersize","pre-supersize",1,"False","False",5,6,2,1,12185,"implicit-mouselab",13,303076,"supersize",12
"54","mouselab","False","[1]","[[4, 7, 4, 3, 5, 5], [7, 5, 4, 7, 5, 3]]","[[1, 0, 1, 1, 1, 1], [1, 1, 1, 1, 1, 1]]","[16, 4]",19.8,12,1,0.132,0.131,0.001,"[1]","supersize","pre-supersize",5,"False","False",5,6,2,1,7576,"implicit-mouselab",14,312578,"supersize",12
"55","mouselab","False","[]","[[5, 5, 4, 3, 8], [4, 8, 5, 6, 3], [5, 3, 6, 5, 6], [6, 6, 6, 7, 7], [3, 5, 5, 6, 6]]","[[4, 4, 4, 4, 4], [4, 4, 4, 4, 4], [4, 4, 4, 4, 4], [4, 4, 4, 4, 4], [4, 4, 4, 4, 4]]","[3, 4, 6, 6, 1]",18.75,13,2,0.109,0.109,0,"[]","supersize","control",4,"False","False",5,5,5,4,6985,"implicit-mouselab",15,322894,"supersize",12
"56","mouselab","False","[]","[[4, 5], [7, 4]]","[[4, 4], [4, 4]]","[10, 10]",19.8,14,1,0.09,0.09,0,"[]","supersize","control",1,"False","True",2,2,2,4,3325,"implicit-mouselab",16,328029,"supersize",12
"57","mouselab","False","[9, 11, 11]","[[4, 6, 9], [3, 4, 6], [3, 4, 5], [8, 5, 5], [5, 7, 1]]","[[1, 1, 1], [1, 1, 1], [1, 1, 1], [0, 1, 0], [1, 1, 1]]","[1, 5, 2, 8, 4]",18.75,15,2,0.093,0.091,0.002,"[9, 11]","supersize","post-supersize",2,"False","True",2,3,5,1,11682,"implicit-mouselab",17,343583,"supersize",12
"58","mouselab","False","[1]","[[3, 7, 7, 6, 7, 6], [1, 2, 5, 6, 5, 4]]","[[1, 0, 1, 1, 1, 1], [1, 1, 1, 1, 1, 1]]","[11, 9]",19.8,16,1,0.095,0.094,0.001,"[1]","supersize","pre-supersize",3,"False","False",5,6,2,1,7007,"implicit-mouselab",18,352824,"supersize",12
"59","mouselab","False","[]","[[5, 6], [7, 6]]","[[4, 4], [4, 4]]","[10, 10]",19.8,17,0,0.12,0.12,0,"[]","supersize","control",0,"False","True",2,2,2,4,2396,"implicit-mouselab",19,356856,"supersize",12
"60","mouselab","False","[5, 9]","[[6, 6, 2], [5, 2, 4], [4, 5, 2], [4, 5, 4], [6, 7, 5]]","[[1, 1, 1], [1, 1, 0], [1, 1, 1], [0, 1, 1], [1, 1, 1]]","[3, 6, 2, 7, 2]",18.75,18,1,0.089,0.087,0.002,"[5, 9]","supersize","pre-supersize",1,"False","True",2,3,5,1,7965,"implicit-mouselab",20,367797,"supersize",12
"61","mouselab","False","[8, 8, 8, 8]","[[5, 8, 6, 6, 9], [5, 5, 5, 7, 7], [6, 5, 4, 5, 3], [6, 3, 3, 6, 6], [4, 5, 3, 3, 5]]","[[4, 4, 4, 4, 4], [4, 4, 4, 0, 4], [4, 4, 4, 4, 4], [4, 4, 4, 4, 4], [4, 4, 4, 4, 4]]","[3, 2, 2, 4, 9]",18.75,19,1,0.101,0.097,0.004,"[8]","supersize","control",4,"False","False",5,5,5,4,9548,"implicit-mouselab",21,380599,"supersize",12
"62","mouselab","False","[1, 0]","[[4, 8, 5], [4, 6, 3]]","[[0, 0, 1], [1, 1, 1]]","[13, 7]",19.8,20,1,0.146,0.144,0.002,"[1, 0]","supersize","post-supersize",2,"False","False",2,3,2,1,7965,"implicit-mouselab",22,390649,"supersize",12
"63","mouselab","False","[5, 1, 3]","[[2, 7, 5, 7, 6, 9], [5, 4, 7, 2, 4, 4]]","[[1, 0, 1, 0, 1, 0], [1, 1, 1, 1, 1, 1]]","[16, 4]",19.8,21,5,0.16,0.157,0.003,"[5, 1, 3]","supersize","pre-supersize",0,"False","False",5,6,2,1,9417,"implicit-mouselab",23,401975,"supersize",12
"64","mouselab","False","[]","[[6, 9], [4, 6], [3, 4], [5, 3], [5, 4]]","[[4, 4], [4, 4], [4, 4], [4, 4], [4, 4]]","[2, 6, 4, 3, 5]",18.75,22,1,0.099,0.099,0,"[]","supersize","control",1,"False","True",2,2,5,4,7680,"implicit-mouselab",24,413663,"supersize",12
"65","mouselab","False","[0, 1]","[[4, 7], [3, 5], [2, 7], [5, 5], [6, 4]]","[[0, 0], [1, 1], [1, 1], [1, 1], [1, 1]]","[13, 2, 2, 1, 2]",18.75,23,1,0.128,0.126,0.002,"[0, 1]","supersize","control",1,"False","True",2,2,5,1,6400,"implicit-mouselab",25,421810,"supersize",12
"66","mouselab","False","[7, 9, 9, 9, 9, 7, 7, 7]","[[6, 9, 9, 4, 2, 5], [8, 5, 5, 4, 6, 6], [4, 6, 3, 5, 3, 6], [5, 7, 5, 2, 0, 4], [4, 6, 3, 3, 10, 5]]","[[4, 4, 4, 4, 4, 4], [4, 0, 4, 0, 4, 4], [4, 4, 4, 4, 4, 4], [4, 4, 4, 4, 4, 4], [4, 4, 4, 4, 4, 4]]","[2, 9, 2, 4, 3]",18.75,24,1,0.121,0.113,0.008,"[9, 7]","supersize","post-supersize",5,"False","False",5,6,5,4,23750,"implicit-mouselab",26,448146,"supersize",12
"67","mouselab","True","[3, 11, 14, 2, 0, 20, 23, 12]","[[3, 5, 4, 6, 5], [4, 6, 6, 2, 4], [5, 3, 4, 4, 4], [5, 7, 6, 7, 7], [6, 4, 5, 5, 9]]","[[0, 1, 0, 0, 1], [1, 1, 1, 1, 1], [1, 0, 0, 1, 0], [1, 1, 1, 1, 1], [0, 1, 1, 0, 1]]","[9, 1, 6, 2, 2]",18.75,1,3,0.104,0.096,0.008,"[3, 11, 14, 2, 0, 20, 23, 12]","supersize","control",4,"False","False",5,5,5,1,77321,"implicit-mouselab",4,522932,"supersize",13
"68","mouselab","True","[0, 0, 0, 0, 3, 3, 3, 3]","[[7, 3], [4, 2]]","[[0, 4], [4, 0]]","[18, 2]",19.8,2,0,0.134,0.126,0.008,"[0, 3]","supersize","control",1,"False","False",2,2,2,4,22206,"implicit-mouselab",5,549546,"supersize",13
"69","mouselab","False","[7, 12, 0, 8, 2]","[[6, 5, 3], [4, 6, 5], [4, 4, 2], [3, 6, 3], [8, 5, 8]]","[[0, 1, 0], [1, 1, 1], [1, 0, 0], [1, 1, 1], [0, 1, 1]]","[4, 2, 6, 2, 6]",18.75,5,0,0.11,0.105,0.005,"[7, 12, 0, 8, 2]","supersize","post-supersize",2,"False","False",2,3,5,1,28685,"implicit-mouselab",7,586347,"supersize",13
"70","mouselab","False","[0, 0, 0, 0, 2, 2, 2, 2, 2, 3, 3, 3, 3]","[[4, 6, 2, 6, 4], [5, 5, 5, 6, 6]]","[[0, 4, 0, 0, 4], [4, 4, 4, 4, 4]]","[16, 4]",19.8,6,3,0.12,0.108,0.012,"[0, 2, 3]","supersize","control",0,"False","False",5,5,2,4,25593,"implicit-mouselab",8,615591,"supersize",13
"71","mouselab","False","[1, 1, 1, 1, 0, 0, 0, 0]","[[8, 4], [6, 3]]","[[0, 0], [4, 4]]","[19, 1]",19.8,7,0,0.158,0.15,0.008,"[1, 0]","supersize","control",1,"False","False",2,2,2,4,11584,"implicit-mouselab",9,629535,"supersize",13
"72","mouselab","False","[1, 6, 3, 4, 5]","[[7, 3, 4, 7, 6, 3], [3, 5, 5, 4, 5, 4]]","[[1, 0, 1, 0, 0, 0], [0, 1, 1, 1, 1, 1]]","[12, 8]",19.8,8,3,0.116,0.111,0.005,"[1, 6, 3, 4, 5]","supersize","post-supersize",5,"False","False",5,6,2,1,28345,"implicit-mouselab",10,660641,"supersize",13
"73","mouselab","False","[21, 3, 13, 18, 23]","[[6, 3, 9, 6, 5, 3], [3, 5, 6, 9, 5, 8], [2, 3, 5, 4, 8, 3], [6, 7, 5, 7, 3, 7], [7, 4, 5, 5, 3, 8]]","[[1, 1, 1, 0, 1, 1], [1, 1, 1, 1, 1, 1], [1, 0, 1, 1, 1, 1], [0, 1, 1, 0, 1, 0], [1, 1, 1, 1, 1, 1]]","[2, 3, 6, 8, 1]",18.75,9,5,0.112,0.107,0.005,"[21, 3, 13, 18, 23]","supersize","post-supersize",5,"False","True",5,6,5,1,36886,"implicit-mouselab",11,700459,"supersize",13
"74","mouselab","False","[6, 6, 6, 6, 7, 7, 7, 7, 4, 4, 4, 4, 3, 3, 3, 3]","[[3, 5, 1], [5, 5, 2], [7, 6, 7], [4, 5, 5], [3, 2, 2]]","[[4, 4, 4], [0, 0, 4], [0, 0, 4], [4, 4, 4], [4, 4, 4]]","[1, 4, 8, 4, 3]",18.75,10,0,0.104,0.088,0.016,"[6, 7, 4, 3]","supersize","pre-supersize",2,"False","False",2,3,5,4,21942,"implicit-mouselab",12,724772,"supersize",13
"75","mouselab","False","[1, 2, 4, 0, 3, 6, 8, 10, 11]","[[6, 3, 6, 3, 6, 6], [5, 3, 6, 8, 7, 5]]","[[0, 0, 0, 0, 0, 1], [0, 1, 0, 1, 0, 0]]","[14, 6]",19.8,11,4,0.126,0.117,0.009,"[1, 2, 4, 0, 3, 6, 8, 10, 11]","supersize","post-supersize",5,"False","False",5,6,2,1,26260,"implicit-mouselab",13,753357,"supersize",13
"76","mouselab","False","[0, 1]","[[7, 4], [6, 6]]","[[0, 0], [1, 1]]","[13, 7]",19.8,12,0,0.133,0.131,0.002,"[0, 1]","supersize","control",1,"False","False",2,2,2,1,9265,"implicit-mouselab",14,764823,"supersize",13
"77","mouselab","False","[4, 5, 0, 3, 8, 1]","[[6, 7], [3, 5], [4, 5], [9, 8], [3, 5]]","[[0, 0], [1, 0], [0, 0], [1, 1], [0, 1]]","[3, 4, 9, 2, 2]",18.75,13,1,0.112,0.106,0.006,"[4, 5, 0, 3, 8, 1]","supersize","control",0,"False","False",2,2,5,1,20477,"implicit-mouselab",15,787514,"supersize",13
"78","mouselab","False","[0, 0, 0, 0, 1, 1, 1, 1]","[[6, 5], [7, 7]]","[[0, 0], [4, 4]]","[15, 5]",19.8,14,0,0.125,0.117,0.008,"[0, 1]","supersize","control",0,"False","True",2,2,2,4,9889,"implicit-mouselab",16,799322,"supersize",13
"79","mouselab","False","[1, 1, 1, 1, 4, 4, 4, 4, 5, 5, 5, 5]","[[5, 4, 6, 5, 6, 6], [8, 2, 4, 4, 3, 5]]","[[4, 0, 4, 4, 0, 0], [4, 4, 4, 4, 4, 4]]","[14, 6]",19.8,15,4,0.102,0.09,0.012,"[1, 4, 5]","supersize","pre-supersize",2,"False","False",5,6,2,4,14598,"implicit-mouselab",17,815936,"supersize",13
"80","mouselab","False","[24, 24, 24, 24, 26, 26, 26, 26, 28, 28, 28, 28, 28, 29, 29, 29, 29]","[[4, 4, 8, 5, 4, 2], [2, 5, 5, 2, 5, 7], [5, 9, 5, 8, 4, 4], [6, 2, 5, 3, 2, 3], [10, 6, 3, 5, 7, 6]]","[[4, 4, 4, 4, 4, 4], [4, 4, 4, 4, 4, 4], [4, 4, 4, 4, 4, 4], [4, 4, 4, 4, 4, 4], [0, 4, 0, 4, 0, 0]]","[1, 3, 1, 2, 13]",18.75,16,0,0.157,0.141,0.016,"[24, 26, 28, 29]","supersize","post-supersize",5,"False","False",5,6,5,4,18891,"implicit-mouselab",18,837611,"supersize",13
"81","mouselab","False","[18, 18, 18, 18, 20, 20, 20, 20, 22, 22, 22, 22, 24, 24, 24, 24]","[[8, 6, 6, 3, 1, 6], [7, 4, 8, 7, 5, 2], [7, 6, 4, 5, 7, 6], [7, 6, 3, 5, 5, 5], [5, 5, 5, 2, 4, 9]]","[[4, 4, 4, 4, 4, 4], [4, 4, 4, 4, 4, 4], [4, 4, 4, 4, 4, 4], [0, 4, 0, 4, 0, 4], [0, 4, 4, 4, 4, 4]]","[1, 3, 1, 10, 5]",18.75,17,0,0.131,0.115,0.016,"[18, 20, 22, 24]","supersize","pre-supersize",5,"False","False",5,6,5,4,16988,"implicit-mouselab",19,856900,"supersize",13
"82","mouselab","False","[4, 5, 3, 2]","[[2, 5], [8, 5], [5, 9], [6, 1], [3, 5]]","[[1, 1], [0, 0], [0, 0], [1, 1], [1, 1]]","[5, 5, 6, 2, 2]",18.75,18,1,0.116,0.112,0.004,"[4, 5, 3, 2]","supersize","control",1,"False","True",2,2,5,1,9159,"implicit-mouselab",20,868233,"supersize",13
"83","mouselab","False","[10, 12, 13, 11, 14, 6, 5, 8, 9]","[[8, 4, 8, 5, 4], [2, 5, 6, 7, 5], [6, 2, 1, 6, 5], [4, 6, 8, 7, 5], [5, 3, 4, 4, 7]]","[[1, 1, 1, 1, 1], [0, 0, 1, 0, 0], [0, 0, 0, 0, 0], [1, 1, 1, 1, 1], [1, 1, 1, 1, 1]]","[1, 6, 7, 5, 1]",18.75,19,3,0.128,0.119,0.009,"[10, 12, 13, 11, 14, 6, 5, 8, 9]","supersize","control",2,"False","False",5,5,5,1,19638,"implicit-mouselab",21,890815,"supersize",13
"84","mouselab","False","[4, 5, 7, 6]","[[4, 6], [7, 4], [6, 6], [8, 5], [6, 2]]","[[1, 1], [1, 1], [0, 0], [0, 0], [1, 1]]","[3, 1, 6, 7, 3]",18.75,20,0,0.129,0.125,0.004,"[4, 5, 7, 6]","supersize","control",1,"False","False",2,2,5,1,10709,"implicit-mouselab",22,903346,"supersize",13
"85","mouselab","False","[5, 6, 7, 8, 9, 2, 3]","[[5, 4, 5, 6, 0], [3, 4, 6, 6, 2]]","[[1, 1, 0, 0, 1], [0, 0, 0, 0, 0]]","[1, 19]",19.8,21,3,0.12,0.113,0.007,"[5, 6, 7, 8, 9, 2, 3]","supersize","control",2,"False","False",5,5,2,1,12208,"implicit-mouselab",23,917303,"supersize",13
"86","mouselab","False","[6, 6, 6, 6, 6, 9, 9, 9, 9, 9, 11, 11, 11, 11, 11]","[[3, 3, 6, 4, 6, 7], [6, 7, 5, 3, 4, 5]]","[[4, 4, 4, 4, 4, 4], [0, 4, 4, 0, 4, 0]]","[7, 13]",19.8,22,1,0.112,0.1,0.012,"[6, 9, 11]","supersize","pre-supersize",1,"False","True",5,6,2,4,10061,"implicit-mouselab",24,929611,"supersize",13
"87","mouselab","False","[1, 1, 1, 1, 0, 0, 0, 0]","[[6, 5, 5], [4, 5, 4]]","[[0, 0, 4], [4, 4, 4]]","[12, 8]",19.8,23,0,0.104,0.096,0.008,"[1, 0]","supersize","pre-supersize",2,"False","False",2,3,2,4,7145,"implicit-mouselab",25,938395,"supersize",13
"88","mouselab","False","[6, 6, 6, 6, 6, 7, 7, 7, 7, 7, 4, 4, 4, 4, 4, 5, 5, 5, 5, 5]","[[5, 2], [6, 6], [6, 5], [6, 4], [4, 7]]","[[4, 4], [4, 4], [0, 0], [0, 0], [4, 4]]","[1, 3, 3, 10, 3]",18.75,24,0,0.113,0.097,0.016,"[6, 7, 4, 5]","supersize","control",0,"False","True",2,2,5,4,14230,"implicit-mouselab",26,954349,"supersize",13
"89","mouselab","True","[0, 0, 0, 0, 1, 1, 1, 1]","[[2, 6], [6, 5]]","[[0, 0], [4, 4]]","[19, 1]",19.8,1,1,0.119,0.111,0.008,"[0, 1]","supersize","control",1,"False","True",2,2,2,4,23422,"implicit-mouselab",4,464091,"supersize",16
"90","mouselab","True","[6, 5, 7, 8, 9]","[[2, 5, 4, 5, 3], [5, 7, 3, 5, 4], [5, 7, 2, 4, 6], [5, 4, 5, 7, 3], [6, 7, 4, 5, 6]]","[[1, 1, 1, 1, 1], [0, 0, 0, 0, 0], [1, 1, 1, 1, 1], [1, 1, 1, 1, 1], [1, 1, 1, 1, 1]]","[2, 14, 2, 1, 1]",18.75,2,1,0.133,0.128,0.005,"[6, 5, 7, 8, 9]","supersize","control",4,"False","False",5,5,5,1,14279,"implicit-mouselab",5,490915,"supersize",16
"91","mouselab","False","[8, 9, 5]","[[4, 4], [4, 7], [2, 6], [7, 5], [4, 6]]","[[1, 1], [1, 1], [1, 0], [1, 1], [0, 0]]","[2, 1, 7, 2, 8]",18.75,5,1,0.115,0.112,0.003,"[8, 9, 5]","supersize","control",1,"False","True",2,2,5,1,18894,"implicit-mouselab",7,520515,"supersize",16
"92","mouselab","False","[6, 1, 0, 7]","[[3, 6], [6, 4], [7, 4], [5, 5], [3, 7]]","[[0, 0], [1, 1], [1, 1], [0, 0], [1, 1]]","[6, 3, 1, 6, 4]",18.75,6,1,0.11,0.106,0.004,"[6, 1, 0, 7]","supersize","control",1,"False","True",2,2,5,1,12903,"implicit-mouselab",8,536851,"supersize",16
"93","mouselab","False","[3, 2]","[[5, 3], [5, 4]]","[[1, 1], [0, 0]]","[9, 11]",19.8,7,0,0.1,0.098,0.002,"[3, 2]","supersize","control",1,"False","False",2,2,2,1,11094,"implicit-mouselab",9,550683,"supersize",16
"94","mouselab","False","[5, 5, 5, 5]","[[3, 8, 6, 3, 3], [6, 7, 5, 6, 6]]","[[4, 4, 4, 4, 4], [0, 4, 4, 4, 4]]","[9, 11]",19.8,8,0,0.093,0.089,0.004,"[5]","supersize","control",1,"False","False",5,5,2,4,13270,"implicit-mouselab",10,566179,"supersize",16
"95","mouselab","False","[3, 4, 5]","[[5, 4, 4], [4, 5, 3]]","[[1, 1, 1], [0, 0, 0]]","[7, 13]",19.8,9,1,0.093,0.09,0.003,"[3, 4, 5]","supersize","post-supersize",2,"False","False",2,3,2,1,39758,"implicit-mouselab",11,611370,"supersize",16
"96","mouselab","False","[4, 4, 4, 4, 1, 1, 1, 1, 0, 0, 0, 0]","[[5, 4, 4, 2, 1, 6], [8, 5, 4, 2, 7, 5]]","[[0, 0, 4, 4, 0, 4], [4, 4, 4, 4, 4, 4]]","[11, 9]",19.8,10,0,0.127,0.115,0.012,"[4, 1, 0]","supersize","pre-supersize",2,"False","False",5,6,2,4,21545,"implicit-mouselab",12,634730,"supersize",16
"97","mouselab","False","[13, 13, 13, 13]","[[6, 4, 3, 5, 5], [6, 4, 4, 7, 5], [5, 7, 7, 6, 8], [7, 5, 6, 5, 4], [6, 4, 3, 5, 5]]","[[4, 4, 4, 4, 4], [4, 4, 4, 4, 4], [4, 4, 4, 0, 4], [4, 4, 4, 4, 4], [4, 4, 4, 4, 4]]","[3, 4, 10, 2, 1]",18.75,11,3,0.118,0.114,0.004,"[13]","supersize","control",1,"False","False",5,5,5,4,9616,"implicit-mouselab",13,647755,"supersize",16
"98","mouselab","False","[2, 2, 2, 2]","[[6, 2], [6, 3]]","[[4, 4], [0, 4]]","[8, 12]",19.8,12,0,0.12,0.116,0.004,"[2]","supersize","control",1,"False","False",2,2,2,4,12190,"implicit-mouselab",14,661771,"supersize",16
"99","mouselab","False","[1, 1, 1, 1]","[[8, 7, 6, 7, 5, 7], [3, 3, 4, 6, 4, 5]]","[[4, 0, 4, 4, 4, 4], [4, 4, 4, 4, 4, 4]]","[13, 7]",19.8,13,1,0.112,0.108,0.004,"[1]","supersize","pre-supersize",4,"False","False",5,6,2,4,9799,"implicit-mouselab",15,673211,"supersize",16
"100","mouselab","False","[5, 5, 5, 5, 9, 9, 9, 9]","[[4, 5, 3, 3, 3], [6, 3, 5, 3, 3]]","[[4, 4, 4, 4, 4], [0, 4, 4, 4, 0]]","[1, 19]",19.8,14,0,0.118,0.11,0.008,"[5, 9]","supersize","control",2,"False","False",5,5,2,4,10807,"implicit-mouselab",16,685643,"supersize",16
"101","mouselab","False","[6, 8, 5, 9]","[[3, 5, 6, 6, 5, 3], [2, 6, 1, 2, 4, 5], [5, 4, 5, 7, 4, 5], [4, 6, 1, 6, 4, 3], [7, 5, 7, 4, 2, 5]]","[[1, 1, 1, 1, 1, 0], [0, 1, 0, 0, 1, 1], [1, 1, 1, 1, 1, 1], [1, 1, 1, 1, 1, 1], [1, 1, 1, 1, 1, 1]]","[5, 7, 3, 4, 1]",18.75,15,5,0.082,0.078,0.004,"[6, 8, 5, 9]","supersize","pre-supersize",5,"False","True",5,6,5,1,14118,"implicit-mouselab",17,701515,"supersize",16
"102","mouselab","False","[12, 13, 14]","[[4, 5, 5], [7, 4, 5], [6, 6, 6], [4, 6, 6], [4, 7, 4]]","[[1, 1, 1], [1, 1, 1], [1, 1, 1], [1, 1, 1], [0, 0, 0]]","[1, 3, 2, 4, 10]",18.75,16,1,0.123,0.12,0.003,"[12, 13, 14]","supersize","post-supersize",2,"False","False",2,3,5,1,19031,"implicit-mouselab",18,722819,"supersize",16
"103","mouselab","False","[6, 6, 6, 6, 8, 8, 8, 8]","[[5, 4, 6, 7, 3], [7, 5, 4, 3, 6], [9, 5, 5, 7, 5], [4, 6, 5, 6, 4], [3, 1, 6, 7, 7]]","[[4, 4, 4, 4, 4], [4, 0, 4, 0, 4], [4, 4, 4, 4, 4], [4, 4, 4, 4, 4], [4, 4, 4, 4, 4]]","[1, 7, 5, 4, 3]",18.75,17,1,0.091,0.083,0.008,"[6, 8]","supersize","control",0,"False","False",5,5,5,4,9910,"implicit-mouselab",19,734419,"supersize",16
"104","mouselab","False","[14, 12, 16, 10, 6, 17]","[[5, 7, 5, 6, 4, 5], [6, 7, 3, 6, 4, 3], [7, 5, 1, 7, 6, 2], [5, 5, 4, 5, 6, 5], [3, 3, 4, 3, 5, 5]]","[[1, 1, 1, 1, 1, 1], [0, 1, 1, 1, 0, 1], [0, 1, 0, 1, 0, 0], [1, 1, 1, 1, 1, 1], [1, 1, 1, 1, 1, 1]]","[3, 4, 7, 3, 3]",18.75,18,0,0.112,0.106,0.006,"[14, 12, 16, 10, 6, 17]","supersize","post-supersize",5,"False","False",5,6,5,1,23191,"implicit-mouselab",20,759411,"supersize",16
"105","mouselab","False","[12, 13, 14]","[[3, 5, 8], [4, 3, 8], [4, 3, 5], [3, 5, 7], [5, 2, 4]]","[[1, 1, 1], [1, 1, 1], [1, 1, 1], [1, 1, 1], [0, 0, 0]]","[1, 3, 4, 5, 7]",18.75,19,0,0.081,0.078,0.003,"[12, 13, 14]","supersize","post-supersize",2,"False","False",2,3,5,1,9511,"implicit-mouselab",21,770499,"supersize",16
"106","mouselab","False","[0, 0, 0, 0, 2, 2, 2, 2]","[[5, 5, 6, 4, 2], [6, 2, 7, 3, 6]]","[[0, 4, 0, 4, 4], [4, 4, 4, 4, 4]]","[15, 5]",19.8,20,2,0.125,0.117,0.008,"[0, 2]","supersize","control",0,"False","False",5,5,2,4,18351,"implicit-mouselab",22,790083,"supersize",16
"107","mouselab","False","[0, 0, 0, 0, 1, 1, 1, 1, 13, 13, 13, 13]","[[4, 4, 8], [4, 7, 3], [3, 6, 6], [3, 4, 7], [6, 2, 8]]","[[0, 0, 4], [4, 4, 4], [4, 4, 4], [4, 4, 4], [4, 0, 4]]","[5, 1, 4, 3, 7]",18.75,21,0,0.087,0.075,0.012,"[0, 1, 13]","supersize","pre-supersize",1,"False","False",2,3,5,4,18463,"implicit-mouselab",23,812163,"supersize",16
"108","mouselab","False","[7]","[[9, 5, 6], [4, 9, 6], [5, 5, 6], [1, 4, 5], [6, 5, 4]]","[[1, 1, 1], [1, 1, 1], [1, 0, 1], [1, 1, 1], [1, 1, 1]]","[2, 5, 5, 3, 5]",18.75,22,1,0.117,0.116,0.001,"[7]","supersize","pre-supersize",1,"False","True",2,3,5,1,7567,"implicit-mouselab",24,821171,"supersize",16
"109","mouselab","False","[0, 3]","[[5, 5, 5, 6, 6], [6, 3, 4, 9, 5]]","[[0, 1, 1, 0, 1], [1, 1, 1, 1, 1]]","[11, 9]",19.8,23,3,0.147,0.145,0.002,"[0, 3]","supersize","control",1,"False","False",5,5,2,1,13543,"implicit-mouselab",25,837163,"supersize",16
"110","mouselab","False","[3, 3, 3, 3, 4, 4, 4, 4, 5, 5, 5, 5]","[[6, 5, 5], [4, 3, 4]]","[[4, 4, 4], [0, 0, 0]]","[6, 14]",19.8,24,2,0.086,0.074,0.012,"[3, 4, 5]","supersize","post-supersize",2,"False","True",2,3,2,4,23575,"implicit-mouselab",26,862075,"supersize",16
"111","mouselab","True","[]","[[6, 4], [4, 6], [5, 5], [1, 4], [8, 2]]","[[1, 1], [1, 1], [1, 1], [1, 1], [1, 1]]","[3, 7, 3, 1, 6]",18.75,1,0,0.11,0.11,0,"[]","supersize","control",0,"False","True",2,2,5,1,6920,"implicit-mouselab",4,596032,"supersize",22
"112","mouselab","True","[]","[[6, 5, 6, 8, 7], [6, 6, 8, 9, 3]]","[[4, 4, 4, 4, 4], [4, 4, 4, 4, 4]]","[10, 10]",19.8,2,2,0.14,0.14,0,"[]","supersize","control",3,"False","False",5,5,2,4,3812,"implicit-mouselab",5,602216,"supersize",22
"113","mouselab","False","[]","[[3, 8, 4], [2, 3, 7], [7, 5, 6], [5, 5, 9], [4, 6, 9]]","[[4, 4, 4], [4, 4, 4], [4, 4, 4], [4, 4, 4], [4, 4, 4]]","[2, 9, 1, 2, 6]",18.75,5,2,0.149,0.149,0,"[]","supersize","post-supersize",2,"False","True",2,3,5,4,8836,"implicit-mouselab",7,616378,"supersize",22
"114","mouselab","False","[]","[[4, 8, 7, 9, 6, 6], [5, 7, 6, 6, 6, 6]]","[[4, 4, 4, 4, 4, 4], [4, 4, 4, 4, 4, 4]]","[18, 2]",19.8,6,2,0.138,0.138,0,"[]","supersize","pre-supersize",2,"False","True",5,6,2,4,2271,"implicit-mouselab",8,620092,"supersize",22
"115","mouselab","False","[]","[[3, 4, 5], [5, 6, 7]]","[[1, 1, 1], [1, 1, 1]]","[4, 16]",19.8,7,2,0.132,0.132,0,"[]","supersize","post-supersize",2,"False","True",2,3,2,1,2334,"implicit-mouselab",9,623635,"supersize",22
"116","mouselab","False","[]","[[4, 5, 5, 8, 5, 5], [6, 5, 6, 3, 4, 7], [7, 2, 5, 3, 7, 6], [6, 6, 4, 5, 6, 4], [5, 5, 5, 7, 7, 2]]","[[1, 1, 1, 1, 1, 1], [1, 1, 1, 1, 1, 1], [1, 1, 1, 1, 1, 1], [1, 1, 1, 1, 1, 1], [1, 1, 1, 1, 1, 1]]","[3, 4, 2, 6, 5]",18.75,8,5,0.089,0.089,0,"[]","supersize","post-supersize",5,"False","True",5,6,5,1,2813,"implicit-mouselab",10,628773,"supersize",22
"117","mouselab","False","[]","[[8, 2, 4], [6, 4, 7]]","[[4, 4, 4], [4, 4, 4]]","[7, 13]",19.8,9,0,0.134,0.134,0,"[]","supersize","pre-supersize",0,"False","True",2,3,2,4,889,"implicit-mouselab",11,630742,"supersize",22
"118","mouselab","False","[]","[[3, 3, 6], [4, 4, 6]]","[[1, 1, 1], [1, 1, 1]]","[11, 9]",19.8,10,2,0.12,0.12,0,"[]","supersize","post-supersize",2,"False","True",2,3,2,1,2575,"implicit-mouselab",12,634398,"supersize",22
"119","mouselab","False","[]","[[7, 7, 3, 2, 6, 5], [7, 4, 6, 5, 5, 0], [7, 9, 3, 7, 7, 3], [4, 3, 4, 5, 2, 3], [5, 3, 5, 4, 8, 4]]","[[4, 4, 4, 4, 4, 4], [4, 4, 4, 4, 4, 4], [4, 4, 4, 4, 4, 4], [4, 4, 4, 4, 4, 4], [4, 4, 4, 4, 4, 4]]","[5, 3, 8, 2, 2]",18.75,11,2,0.075,0.075,0,"[]","supersize","pre-supersize",0,"False","False",5,6,5,4,706,"implicit-mouselab",13,637961,"supersize",22
"120","mouselab","False","[]","[[0, 3, 4, 6, 6], [4, 7, 6, 2, 4], [4, 8, 5, 3, 6], [5, 5, 5, 5, 3], [5, 5, 4, 5, 8]]","[[4, 4, 4, 4, 4], [4, 4, 4, 4, 4], [4, 4, 4, 4, 4], [4, 4, 4, 4, 4], [4, 4, 4, 4, 4]]","[5, 3, 3, 5, 4]",18.75,12,1,0.105,0.105,0,"[]","supersize","control",2,"False","False",5,5,5,4,2593,"implicit-mouselab",14,642279,"supersize",22
"121","mouselab","False","[]","[[2, 5, 4, 5, 0], [7, 7, 6, 4, 5]]","[[4, 4, 4, 4, 4], [4, 4, 4, 4, 4]]","[13, 7]",19.8,13,2,0.094,0.094,0,"[]","supersize","control",0,"False","False",5,5,2,4,906,"implicit-mouselab",15,644226,"supersize",22
"122","mouselab","False","[]","[[5, 8], [5, 6], [4, 5], [4, 5], [2, 4]]","[[1, 1], [1, 1], [1, 1], [1, 1], [1, 1]]","[2, 11, 3, 1, 3]",18.75,14,0,0.087,0.087,0,"[]","supersize","control",0,"False","True",2,2,5,1,1012,"implicit-mouselab",16,647074,"supersize",22
"123","mouselab","False","[]","[[4, 6, 2, 4, 4], [6, 6, 7, 8, 7]]","[[1, 1, 1, 1, 1], [1, 1, 1, 1, 1]]","[9, 11]",19.8,15,0,0.102,0.102,0,"[]","supersize","control",4,"False","False",5,5,2,1,1478,"implicit-mouselab",17,651004,"supersize",22
"124","mouselab","False","[0, 2, 1, 3]","[[4, 2], [4, 6]]","[[0, 0], [0, 0]]","[18, 2]",19.8,16,1,0.048,0.044,0.004,"[0, 2, 1, 3]","supersize","control",0,"False","False",2,2,2,1,4842,"implicit-mouselab",18,657275,"supersize",22
"125","mouselab","False","[0, 3]","[[3, 5], [6, 4]]","[[0, 1], [1, 0]]","[18, 2]",19.8,17,1,0.098,0.096,0.002,"[0, 3]","supersize","control",0,"False","False",2,2,2,1,5721,"implicit-mouselab",19,664066,"supersize",22
"126","mouselab","False","[4, 6, 0, 7]","[[5, 6, 5], [6, 5, 2], [5, 3, 4], [7, 5, 4], [5, 6, 5]]","[[0, 1, 1], [1, 0, 1], [0, 0, 1], [1, 1, 1], [1, 1, 1]]","[1, 3, 2, 5, 9]",18.75,18,0,0.113,0.109,0.004,"[4, 6, 0, 7]","supersize","post-supersize",2,"False","False",2,3,5,1,6685,"implicit-mouselab",20,672429,"supersize",22
"127","mouselab","False","[]","[[6, 1, 4, 5, 4, 5], [3, 3, 6, 5, 5, 7], [2, 9, 8, 1, 6, 4], [7, 6, 6, 6, 2, 3], [5, 5, 2, 5, 9, 9]]","[[4, 4, 4, 4, 4, 4], [4, 4, 4, 4, 4, 4], [4, 4, 4, 4, 4, 4], [4, 4, 4, 4, 4, 4], [4, 4, 4, 4, 4, 4]]","[1, 3, 8, 4, 4]",18.75,19,3,0.072,0.072,0,"[]","supersize","pre-supersize",3,"False","True",5,6,5,4,2311,"implicit-mouselab",21,676128,"supersize",22
"128","mouselab","False","[16, 7, 7, 7, 7]","[[5, 5, 4, 6, 4], [6, 5, 6, 8, 6], [5, 6, 2, 4, 5], [4, 6, 5, 7, 2], [4, 5, 4, 6, 7]]","[[4, 4, 4, 4, 4], [4, 4, 0, 4, 4], [4, 4, 4, 4, 4], [4, 3, 4, 4, 4], [4, 4, 4, 4, 4]]","[1, 4, 4, 8, 3]",18.75,20,2,0.088,0.083,0.005,"[7]","supersize","control",2,"False","True",5,5,5,4,5112,"implicit-mouselab",22,682633,"supersize",22
"129","mouselab","False","[2]","[[2, 5, 7, 4, 2, 4], [4, 6, 4, 4, 6, 5]]","[[4, 4, 3, 4, 4, 4], [4, 4, 4, 4, 4, 4]]","[5, 15]",19.8,21,2,0.095,0.094,0.001,"[]","supersize","pre-supersize",0,"False","False",5,6,2,4,1412,"implicit-mouselab",23,684865,"supersize",22
"130","mouselab","False","[]","[[4, 4], [5, 5]]","[[1, 1], [1, 1]]","[6, 14]",19.8,22,0,0.094,0.094,0,"[]","supersize","control",0,"False","True",2,2,2,1,794,"implicit-mouselab",24,687231,"supersize",22
"131","mouselab","False","[2, 5, 5, 5, 5]","[[6, 4], [6, 4], [4, 8], [8, 7], [5, 3]]","[[4, 4], [3, 4], [4, 0], [4, 4], [4, 4]]","[2, 1, 10, 5, 2]",18.75,23,1,0.133,0.128,0.005,"[5]","supersize","control",1,"False","True",2,2,5,4,3398,"implicit-mouselab",25,692060,"supersize",22
"132","mouselab","False","[11, 11, 11, 13, 10]","[[2, 7, 7, 8, 4], [6, 5, 7, 5, 5], [5, 4, 6, 4, 3], [4, 5, 5, 3, 5], [4, 4, 2, 7, 6]]","[[1, 1, 1, 1, 1], [1, 1, 1, 1, 1], [0, 0, 1, 0, 1], [1, 1, 1, 1, 1], [1, 1, 1, 1, 1]]","[3, 2, 6, 3, 6]",18.75,24,0,0.084,0.081,0.003,"[11, 13, 10]","supersize","control",1,"False","False",5,5,5,1,5471,"implicit-mouselab",26,698971,"supersize",22
"133","mouselab","True","[0, 2, 1, 3, 1, 3]","[[3, 8], [7, 7]]","[[0, 0], [0, 0]]","[19, 1]",19.8,1,1,0.159,0.155,0.004,"[0, 2, 1, 3]","supersize","control",0,"False","False",2,2,2,1,12886,"implicit-mouselab",4,248228,"supersize",23
"134","mouselab","True","[20, 20, 20, 20, 7, 7, 7, 7, 19, 19, 19, 19]","[[4, 6, 5, 7, 6], [4, 5, 5, 4, 7], [4, 7, 2, 4, 4], [4, 5, 5, 3, 5], [5, 3, 8, 5, 6]]","[[4, 4, 4, 4, 4], [4, 4, 0, 4, 4], [4, 4, 4, 4, 4], [4, 4, 4, 4, 0], [0, 4, 4, 4, 4]]","[3, 4, 1, 4, 8]",18.75,2,4,0.118,0.106,0.012,"[20, 7, 19]","supersize","control",3,"False","False",5,5,5,4,26050,"implicit-mouselab",5,281386,"supersize",23
"135","mouselab","False","[]","[[5, 4, 4], [7, 5, 5]]","[[4, 4, 4], [4, 4, 4]]","[10, 10]",19.8,5,0,0.12,0.12,0,"[]","supersize","pre-supersize",0,"False","True",2,3,2,4,4902,"implicit-mouselab",7,292690,"supersize",23
"136","mouselab","False","[4, 4, 4, 4, 1, 1, 1, 1]","[[4, 4], [5, 4], [5, 4], [4, 4], [2, 6]]","[[4, 0], [4, 4], [0, 4], [4, 4], [4, 4]]","[1, 3, 8, 3, 5]",18.75,6,0,0.081,0.073,0.008,"[4, 1]","supersize","control",0,"False","True",2,2,5,4,17776,"implicit-mouselab",8,313940,"supersize",23
"137","mouselab","False","[0, 3]","[[5, 6, 5, 9, 7], [6, 7, 3, 4, 2]]","[[0, 1, 1, 0, 1], [1, 1, 1, 1, 1]]","[13, 7]",19.8,7,3,0.145,0.143,0.002,"[0, 3]","supersize","control",1,"False","False",5,5,2,1,7659,"implicit-mouselab",9,323382,"supersize",23
"138","mouselab","False","[5, 5, 5, 5]","[[7, 3, 4, 4, 5], [7, 4, 7, 3, 2]]","[[4, 4, 4, 4, 4], [0, 4, 4, 4, 4]]","[3, 17]",19.8,8,0,0.14,0.136,0.004,"[5]","supersize","control",1,"False","False",5,5,2,4,6314,"implicit-mouselab",10,331722,"supersize",23
"139","mouselab","False","[10, 10, 10, 10, 12, 12, 12, 12, 14, 14, 14, 14]","[[7, 5, 2, 4, 4], [7, 7, 5, 2, 4], [4, 9, 5, 3, 6], [2, 4, 3, 6, 3], [4, 6, 5, 3, 4]]","[[4, 4, 4, 4, 4], [4, 4, 4, 4, 4], [0, 4, 0, 4, 0], [4, 4, 4, 4, 4], [4, 4, 4, 4, 4]]","[7, 4, 2, 3, 4]",18.75,9,4,0.081,0.069,0.012,"[10, 12, 14]","supersize","control",3,"False","False",5,5,5,4,13492,"implicit-mouselab",11,347538,"supersize",23
"140","mouselab","False","[1, 11, 8]","[[3, 3, 5], [1, 4, 4], [4, 5, 3], [0, 6, 4], [4, 5, 5]]","[[1, 0, 1], [1, 1, 1], [1, 1, 0], [1, 1, 0], [1, 1, 1]]","[1, 4, 5, 8, 2]",18.75,10,0,0.035,0.032,0.003,"[1, 11, 8]","supersize","post-supersize",2,"False","False",2,3,5,1,15601,"implicit-mouselab",12,364954,"supersize",23
"141","mouselab","False","[2]","[[8, 3], [7, 4]]","[[1, 1], [0, 1]]","[6, 14]",19.8,11,0,0.146,0.145,0.001,"[2]","supersize","control",0,"False","True",2,2,2,1,2114,"implicit-mouselab",13,368275,"supersize",23
"142","mouselab","False","[]","[[5, 4, 4], [4, 4, 5], [6, 7, 7], [3, 9, 7], [6, 4, 6]]","[[1, 1, 1], [1, 1, 1], [1, 1, 1], [1, 1, 1], [1, 1, 1]]","[9, 1, 2, 5, 3]",18.75,12,1,0.111,0.111,0,"[]","supersize","pre-supersize",1,"False","True",2,3,5,1,1266,"implicit-mouselab",14,371073,"supersize",23
"143","mouselab","False","[12, 15, 14, 0]","[[8, 3, 5, 8, 3, 6], [4, 5, 7, 6, 7, 3], [6, 6, 6, 6, 2, 3], [8, 6, 6, 5, 4, 4], [5, 7, 3, 5, 6, 5]]","[[0, 1, 1, 1, 1, 1], [1, 1, 1, 1, 1, 1], [0, 1, 0, 0, 1, 1], [1, 1, 1, 1, 1, 1], [1, 1, 1, 1, 1, 1]]","[6, 2, 8, 3, 1]",18.75,13,0,0.133,0.129,0.004,"[12, 15, 14, 0]","supersize","post-supersize",5,"False","False",5,6,5,1,10330,"implicit-mouselab",15,382843,"supersize",23
"144","mouselab","False","[2, 2, 2, 2]","[[7, 4], [7, 7]]","[[4, 4], [0, 4]]","[9, 11]",19.8,14,0,0.14,0.136,0.004,"[2]","supersize","control",1,"False","False",2,2,2,4,3603,"implicit-mouselab",16,387482,"supersize",23
"145","mouselab","False","[0]","[[8, 3, 5, 6, 6, 8], [4, 5, 6, 5, 6, 6]]","[[0, 1, 1, 1, 1, 1], [1, 1, 1, 1, 1, 1]]","[17, 3]",19.8,15,5,0.154,0.153,0.001,"[0]","supersize","post-supersize",5,"False","True",5,6,2,1,3886,"implicit-mouselab",17,392417,"supersize",23
"146","mouselab","False","[]","[[1, 3, 8, 5, 8, 6], [2, 6, 4, 2, 2, 4], [10, 7, 4, 4, 5, 5], [2, 6, 3, 5, 3, 5], [6, 9, 8, 7, 3, 4]]","[[4, 4, 4, 4, 4, 4], [4, 4, 4, 4, 4, 4], [4, 4, 4, 4, 4, 4], [4, 4, 4, 4, 4, 4], [4, 4, 4, 4, 4, 4]]","[2, 3, 2, 3, 10]",18.75,16,5,0.089,0.089,0,"[]","supersize","pre-supersize",5,"False","True",5,6,5,4,4306,"implicit-mouselab",18,397944,"supersize",23
"147","mouselab","False","[0, 0, 0, 0, 3, 3, 3, 3]","[[4, 6, 5, 7, 6, 3], [4, 7, 3, 5, 5, 5]]","[[0, 4, 4, 0, 4, 4], [4, 4, 4, 4, 4, 4]]","[12, 8]",19.8,17,3,0.124,0.116,0.008,"[0, 3]","supersize","post-supersize",5,"False","False",5,6,2,4,6459,"implicit-mouselab",19,405340,"supersize",23
"148","mouselab","False","[2, 2, 2, 2, 5, 5, 5, 5]","[[3, 3], [5, 6], [5, 5], [5, 2], [8, 6]]","[[4, 4], [0, 4], [4, 0], [4, 4], [4, 4]]","[4, 8, 3, 3, 2]",18.75,18,1,0.093,0.085,0.008,"[2, 5]","supersize","control",0,"False","False",2,2,5,4,6078,"implicit-mouselab",20,412934,"supersize",23
"149","mouselab","False","[6, 8, 10]","[[9, 7, 5, 6, 4, 5], [3, 3, 4, 8, 7, 7]]","[[1, 1, 1, 1, 1, 1], [0, 1, 0, 1, 0, 1]]","[3, 17]",19.8,19,5,0.134,0.131,0.003,"[6, 8, 10]","supersize","post-supersize",5,"False","True",5,6,2,1,5153,"implicit-mouselab",21,418974,"supersize",23
"150","mouselab","False","[0, 2]","[[6, 6, 7, 6, 4], [3, 6, 5, 6, 2]]","[[0, 1, 0, 1, 1], [1, 1, 1, 1, 1]]","[12, 8]",19.8,20,2,0.124,0.122,0.002,"[0, 2]","supersize","control",2,"False","True",5,5,2,1,3445,"implicit-mouselab",22,423891,"supersize",23
"151","mouselab","False","[8, 0]","[[6, 3], [2, 6], [5, 6], [4, 8], [6, 5]]","[[0, 1], [1, 1], [1, 1], [1, 1], [0, 1]]","[1, 2, 2, 2, 13]",18.75,21,0,0.106,0.104,0.002,"[8, 0]","supersize","control",1,"False","False",2,2,5,1,5288,"implicit-mouselab",23,430093,"supersize",23
"152","mouselab","False","[4, 4, 4, 4]","[[6, 5], [5, 7], [4, 4], [2, 5], [8, 5]]","[[4, 4], [4, 4], [0, 4], [4, 4], [4, 4]]","[1, 1, 12, 4, 2]",18.75,22,1,0.09,0.086,0.004,"[4]","supersize","control",0,"False","False",2,2,5,4,3432,"implicit-mouselab",24,434452,"supersize",23
"153","mouselab","False","[]","[[3, 2, 4], [7, 5, 6]]","[[4, 4, 4], [4, 4, 4]]","[8, 12]",19.8,23,0,0.108,0.108,0,"[]","supersize","pre-supersize",0,"False","True",2,3,2,4,1348,"implicit-mouselab",25,436692,"supersize",23
"154","mouselab","False","[]","[[6, 6, 6, 3, 4, 5], [0, 5, 6, 7, 5, 6], [8, 8, 8, 10, 6, 5], [1, 5, 6, 3, 5, 3], [5, 3, 6, 6, 4, 4]]","[[1, 1, 1, 1, 1, 1], [1, 1, 1, 1, 1, 1], [1, 1, 1, 1, 1, 1], [1, 1, 1, 1, 1, 1], [1, 1, 1, 1, 1, 1]]","[5, 6, 4, 2, 3]",18.75,24,1,0.111,0.111,0,"[]","supersize","pre-supersize",1,"False","True",5,6,5,1,1100,"implicit-mouselab",26,438855,"supersize",23
"155","mouselab","True","[1, 7, 7, 7, 7, 1, 1, 1, 3, 3, 3, 3, 5, 5, 5, 5, 5, 8, 8, 8, 8, 8]","[[5, 5, 2, 3, 5], [3, 5, 6, 3, 3]]","[[4, 0, 4, 0, 4], [0, 4, 0, 0, 4]]","[5, 15]",19.8,1,4,0.07,0.05,0.02,"[7, 1, 3, 5, 8]","supersize","control",1,"False","False",5,5,2,4,41836,"implicit-mouselab",4,334975,"supersize",24
"156","mouselab","True","[2, 2, 2, 5, 8, 7]","[[1, 4], [6, 5], [8, 3], [4, 5], [3, 10]]","[[1, 1], [0, 1], [1, 0], [1, 0], [0, 1]]","[5, 6, 3, 3, 3]",18.75,2,1,0.104,0.1,0.004,"[2, 5, 8, 7]","supersize","control",0,"False","False",2,2,5,1,12623,"implicit-mouselab",5,356445,"supersize",24
"157","mouselab","False","[]","[[4, 4], [6, 7]]","[[4, 4], [4, 4]]","[14, 6]",19.8,5,1,0.098,0.098,0,"[]","supersize","control",0,"False","False",2,2,2,4,2671,"implicit-mouselab",7,365105,"supersize",24
"158","mouselab","False","[]","[[2, 3, 5, 7, 8, 4], [7, 5, 6, 5, 3, 5]]","[[4, 4, 4, 4, 4, 4], [4, 4, 4, 4, 4, 4]]","[1, 19]",19.8,6,3,0.102,0.102,0,"[]","supersize","pre-supersize",0,"False","False",5,6,2,4,10139,"implicit-mouselab",8,377793,"supersize",24
"159","mouselab","False","[]","[[6, 4], [6, 6], [4, 4], [8, 5], [5, 3]]","[[1, 1], [1, 1], [1, 1], [1, 1], [1, 1]]","[2, 4, 1, 10, 3]",18.75,7,1,0.095,0.095,0,"[]","supersize","control",1,"False","True",2,2,5,1,3389,"implicit-mouselab",9,384069,"supersize",24
"160","mouselab","False","[]","[[3, 1, 8, 3, 5], [6, 5, 2, 6, 10]]","[[4, 4, 4, 4, 4], [4, 4, 4, 4, 4]]","[12, 8]",19.8,8,1,0.052,0.052,0,"[]","supersize","control",2,"False","False",5,5,2,4,2015,"implicit-mouselab",10,389867,"supersize",24
"161","mouselab","False","[]","[[1, 7], [3, 5]]","[[1, 1], [1, 1]]","[11, 9]",19.8,9,0,0.038,0.038,0,"[]","supersize","control",0,"False","True",2,2,2,1,1128,"implicit-mouselab",11,392727,"supersize",24
"162","mouselab","False","[]","[[4, 6, 6, 6, 4, 8], [4, 5, 7, 3, 4, 8]]","[[1, 1, 1, 1, 1, 1], [1, 1, 1, 1, 1, 1]]","[8, 12]",19.8,10,3,0.084,0.084,0,"[]","supersize","pre-supersize",1,"False","False",5,6,2,1,1710,"implicit-mouselab",12,396807,"supersize",24
"163","mouselab","False","[]","[[4, 8, 6], [5, 6, 3], [5, 6, 3], [3, 4, 9], [3, 3, 4]]","[[1, 1, 1], [1, 1, 1], [1, 1, 1], [1, 1, 1], [1, 1, 1]]","[3, 6, 3, 2, 6]",18.75,11,2,0.087,0.087,0,"[]","supersize","post-supersize",2,"False","True",2,3,5,1,8626,"implicit-mouselab",13,408209,"supersize",24
"164","mouselab","False","[]","[[6, 2, 4, 3, 6], [5, 3, 6, 3, 7], [6, 6, 6, 6, 7], [8, 6, 5, 7, 6], [3, 5, 5, 5, 5]]","[[1, 1, 1, 1, 1], [1, 1, 1, 1, 1], [1, 1, 1, 1, 1], [1, 1, 1, 1, 1], [1, 1, 1, 1, 1]]","[1, 1, 6, 8, 4]",18.75,12,3,0.118,0.118,0,"[]","supersize","control",1,"False","False",5,5,5,1,1921,"implicit-mouselab",14,412385,"supersize",24
"165","mouselab","False","[]","[[3, 2, 5], [7, 7, 5], [5, 6, 3], [3, 6, 6], [4, 4, 6]]","[[1, 1, 1], [1, 1, 1], [1, 1, 1], [1, 1, 1], [1, 1, 1]]","[3, 3, 1, 6, 7]",18.75,13,2,0.111,0.111,0,"[]","supersize","post-supersize",2,"False","True",2,3,5,1,4309,"implicit-mouselab",15,419668,"supersize",24
"166","mouselab","False","[]","[[5, 4, 6, 7, 6, 6], [7, 3, 8, 6, 5, 6], [8, 4, 3, 6, 8, 5], [4, 3, 4, 5, 5, 6], [5, 5, 5, 7, 7, 7]]","[[4, 4, 4, 4, 4, 4], [4, 4, 4, 4, 4, 4], [4, 4, 4, 4, 4, 4], [4, 4, 4, 4, 4, 4], [4, 4, 4, 4, 4, 4]]","[8, 4, 5, 1, 2]",18.75,14,1,0.077,0.077,0,"[]","supersize","pre-supersize",3,"False","False",5,6,5,4,4103,"implicit-mouselab",16,427364,"supersize",24
"167","mouselab","False","[]","[[6, 3], [4, 7], [5, 5], [6, 2], [0, 5]]","[[4, 4], [4, 4], [4, 4], [4, 4], [4, 4]]","[10, 2, 4, 2, 2]",18.75,15,1,0.078,0.078,0,"[]","supersize","control",1,"False","True",2,2,5,4,1962,"implicit-mouselab",17,431613,"supersize",24
"168","mouselab","False","[]","[[5, 5, 6, 3, 2], [4, 6, 2, 3, 7], [7, 2, 5, 3, 6], [3, 3, 6, 7, 2], [3, 0, 6, 4, 6]]","[[4, 4, 4, 4, 4], [4, 4, 4, 4, 4], [4, 4, 4, 4, 4], [4, 4, 4, 4, 4], [4, 4, 4, 4, 4]]","[3, 3, 1, 11, 2]",18.75,16,3,0.106,0.106,0,"[]","supersize","control",1,"False","False",5,5,5,4,3066,"implicit-mouselab",18,437276,"supersize",24
"169","mouselab","False","[]","[[4, 6, 6], [4, 3, 4]]","[[4, 4, 4], [4, 4, 4]]","[11, 9]",19.8,17,0,0.08,0.08,0,"[]","supersize","pre-supersize",2,"False","False",2,3,2,4,1813,"implicit-mouselab",19,441454,"supersize",24
"170","mouselab","False","[]","[[4, 9, 3], [6, 5, 6], [6, 5, 6], [8, 3, 6], [5, 6, 3]]","[[1, 1, 1], [1, 1, 1], [1, 1, 1], [1, 1, 1], [1, 1, 1]]","[10, 2, 3, 2, 3]",18.75,18,0,0.101,0.101,0,"[]","supersize","post-supersize",2,"False","False",2,3,5,1,4886,"implicit-mouselab",20,449648,"supersize",24
"171","mouselab","False","[]","[[4, 4], [5, 7]]","[[4, 4], [4, 4]]","[16, 4]",19.8,19,0,0.084,0.084,0,"[]","supersize","control",1,"False","False",2,2,2,4,1748,"implicit-mouselab",21,453446,"supersize",24
"172","mouselab","False","[]","[[3, 4, 3, 5, 8, 6], [7, 4, 6, 4, 7, 3], [3, 6, 5, 7, 6, 4], [2, 9, 1, 7, 4, 6], [5, 3, 7, 4, 4, 5]]","[[4, 4, 4, 4, 4, 4], [4, 4, 4, 4, 4, 4], [4, 4, 4, 4, 4, 4], [4, 4, 4, 4, 4, 4], [4, 4, 4, 4, 4, 4]]","[2, 2, 2, 2, 12]",18.75,20,3,0.094,0.094,0,"[]","supersize","post-supersize",5,"False","False",5,6,5,4,4437,"implicit-mouselab",22,460648,"supersize",24
"173","mouselab","False","[]","[[5, 6, 5, 8, 6], [6, 3, 6, 5, 6]]","[[1, 1, 1, 1, 1], [1, 1, 1, 1, 1]]","[1, 19]",19.8,21,1,0.063,0.063,0,"[]","supersize","control",4,"False","False",5,5,2,1,2843,"implicit-mouselab",23,465147,"supersize",24
"174","mouselab","False","[]","[[6, 5, 6, 4, 5, 5], [3, 6, 6, 4, 7, 7]]","[[1, 1, 1, 1, 1, 1], [1, 1, 1, 1, 1, 1]]","[7, 13]",19.8,22,2,0.12,0.12,0,"[]","supersize","pre-supersize",4,"False","False",5,6,2,1,2443,"implicit-mouselab",24,469370,"supersize",24
"175","mouselab","False","[]","[[4, 4], [8, 5]]","[[1, 1], [1, 1]]","[5, 15]",19.8,23,1,0.095,0.095,0,"[]","supersize","control",1,"False","True",2,2,2,1,1469,"implicit-mouselab",25,472172,"supersize",24
"176","mouselab","False","[]","[[5, 5, 6, 8, 5, 4], [2, 2, 2, 6, 5, 7], [4, 3, 4, 4, 5, 5], [5, 3, 4, 4, 6, 8], [9, 5, 6, 4, 2, 5]]","[[4, 4, 4, 4, 4, 4], [4, 4, 4, 4, 4, 4], [4, 4, 4, 4, 4, 4], [4, 4, 4, 4, 4, 4], [4, 4, 4, 4, 4, 4]]","[7, 4, 1, 2, 6]",18.75,24,5,0.107,0.107,0,"[]","supersize","post-supersize",5,"False","True",5,6,5,4,4257,"implicit-mouselab",26,479456,"supersize",24
"177","mouselab","True","[6, 6, 6, 6, 7, 7, 7, 7]","[[4, 5], [5, 6], [3, 7], [5, 5], [0, 7]]","[[4, 4], [4, 4], [4, 4], [0, 0], [4, 4]]","[4, 1, 2, 7, 6]",18.75,1,0,0.062,0.054,0.008,"[6, 7]","supersize","control",0,"False","True",2,2,5,4,18458,"implicit-mouselab",4,393430,"supersize",25
"178","mouselab","True","[]","[[7, 8, 2, 6, 5], [4, 4, 5, 5, 3]]","[[1, 1, 1, 1, 1], [1, 1, 1, 1, 1]]","[10, 10]",19.8,2,4,0.08,0.08,0,"[]","supersize","control",4,"False","True",5,5,2,1,7775,"implicit-mouselab",5,402889,"supersize",25
"179","mouselab","False","[0, 2, 4, 3, 1]","[[5, 5, 3, 9, 4, 4], [8, 6, 3, 6, 4, 7], [4, 6, 5, 5, 4, 6], [3, 4, 7, 10, 6, 5], [7, 3, 5, 4, 3, 7]]","[[0, 0, 0, 0, 0, 1], [1, 1, 1, 1, 1, 1], [1, 1, 1, 1, 1, 1], [1, 1, 1, 1, 1, 1], [1, 1, 1, 1, 1, 1]]","[9, 2, 1, 4, 4]",18.75,5,3,0.154,0.149,0.005,"[0, 2, 4, 3, 1]","supersize","post-supersize",5,"False","False",5,6,5,1,16537,"implicit-mouselab",7,429210,"supersize",25
"180","mouselab","False","[20, 20, 20, 20]","[[3, 4, 4, 5, 3], [6, 3, 3, 6, 7], [0, 5, 7, 1, 5], [7, 6, 3, 7, 4], [8, 4, 1, 4, 10]]","[[4, 4, 4, 4, 4], [4, 4, 4, 4, 4], [4, 4, 4, 4, 4], [4, 4, 4, 4, 4], [0, 4, 4, 4, 4]]","[2, 1, 4, 3, 10]",18.75,6,0,0.113,0.109,0.004,"[20]","supersize","control",4,"False","False",5,5,5,4,8064,"implicit-mouselab",8,440417,"supersize",25
"181","mouselab","False","[6, 7, 8, 9, 10]","[[4, 7, 6, 7, 7, 10], [5, 9, 6, 7, 5, 3], [1, 5, 6, 8, 5, 4], [4, 5, 8, 3, 7, 8], [3, 6, 3, 5, 4, 5]]","[[1, 1, 1, 1, 1, 1], [0, 0, 0, 0, 0, 1], [1, 1, 1, 1, 1, 1], [1, 1, 1, 1, 1, 1], [1, 1, 1, 1, 1, 1]]","[3, 9, 5, 1, 2]",18.75,7,1,0.144,0.139,0.005,"[6, 7, 8, 9, 10]","supersize","post-supersize",5,"False","False",5,6,5,1,6839,"implicit-mouselab",9,449027,"supersize",25
"182","mouselab","False","[]","[[7, 5], [6, 8], [6, 5], [6, 6], [6, 6]]","[[1, 1], [1, 1], [1, 1], [1, 1], [1, 1]]","[9, 5, 1, 4, 1]",18.75,8,1,0.12,0.12,0,"[]","supersize","control",1,"False","True",2,2,5,1,3951,"implicit-mouselab",10,454655,"supersize",25
"183","mouselab","False","[]","[[2, 5], [5, 7]]","[[1, 1], [1, 1]]","[9, 11]",19.8,9,1,0.122,0.122,0,"[]","supersize","control",0,"False","False",2,2,2,1,3066,"implicit-mouselab",11,459035,"supersize",25
"184","mouselab","False","[]","[[4, 8, 7, 3, 5, 4], [5, 6, 3, 6, 6, 0], [6, 8, 3, 6, 3, 6], [5, 7, 7, 5, 3, 4], [4, 4, 4, 5, 3, 4]]","[[4, 4, 4, 4, 4, 4], [4, 4, 4, 4, 4, 4], [4, 4, 4, 4, 4, 4], [4, 4, 4, 4, 4, 4], [4, 4, 4, 4, 4, 4]]","[5, 7, 1, 3, 4]",18.75,10,2,0.096,0.096,0,"[]","supersize","post-supersize",5,"False","False",5,6,5,4,6846,"implicit-mouselab",12,467489,"supersize",25
"185","mouselab","False","[7, 7, 7, 7, 11, 11, 11, 11, 8, 8, 8, 8]","[[6, 4, 1, 6, 6, 5], [6, 4, 6, 2, 4, 5]]","[[4, 4, 4, 4, 4, 4], [4, 0, 0, 4, 4, 0]]","[1, 19]",19.8,11,2,0.115,0.103,0.012,"[7, 11, 8]","supersize","pre-supersize",3,"False","False",5,6,2,4,18323,"implicit-mouselab",13,487433,"supersize",25
"186","mouselab","False","[1, 3, 2, 4, 5, 0]","[[3, 5, 4, 5, 1, 4], [6, 6, 2, 7, 8, 3]]","[[0, 0, 0, 0, 0, 0], [1, 1, 1, 1, 1, 1]]","[14, 6]",19.8,12,1,0.106,0.1,0.006,"[1, 3, 2, 4, 5, 0]","supersize","pre-supersize",4,"False","False",5,6,2,1,9190,"implicit-mouselab",14,497847,"supersize",25
"187","mouselab","False","[]","[[3, 4], [6, 8]]","[[4, 4], [4, 4]]","[2, 18]",19.8,13,1,0.152,0.152,0,"[]","supersize","control",0,"False","False",2,2,2,4,2665,"implicit-mouselab",15,501427,"supersize",25
"188","mouselab","False","[]","[[5, 7], [6, 4]]","[[4, 4], [4, 4]]","[13, 7]",19.8,14,1,0.119,0.119,0,"[]","supersize","control",0,"False","False",2,2,2,4,1386,"implicit-mouselab",16,503647,"supersize",25
"189","mouselab","False","[]","[[7, 8, 5], [2, 3, 5]]","[[4, 4, 4], [4, 4, 4]]","[4, 16]",19.8,15,0,0.06,0.06,0,"[]","supersize","post-supersize",2,"False","False",2,3,2,4,2622,"implicit-mouselab",17,507383,"supersize",25
"190","mouselab","False","[]","[[4, 6, 8], [2, 5, 5]]","[[1, 1, 1], [1, 1, 1]]","[3, 17]",19.8,16,1,0.103,0.103,0,"[]","supersize","pre-supersize",0,"False","False",2,3,2,1,1206,"implicit-mouselab",18,509750,"supersize",25
"191","mouselab","False","[6, 7]","[[8, 3], [6, 5], [3, 7], [2, 4], [2, 7]]","[[1, 1], [1, 1], [1, 1], [0, 0], [1, 1]]","[2, 3, 6, 8, 1]",18.75,17,1,0.102,0.1,0.002,"[6, 7]","supersize","control",1,"False","True",2,2,5,1,6664,"implicit-mouselab",19,517289,"supersize",25
"192","mouselab","False","[]","[[5, 3], [5, 5]]","[[1, 1], [1, 1]]","[1, 19]",19.8,18,1,0.098,0.098,0,"[]","supersize","control",1,"False","True",2,2,2,1,2139,"implicit-mouselab",20,520211,"supersize",25
"193","mouselab","False","[5, 6, 7, 8, 9]","[[5, 5, 4, 6, 7], [7, 5, 5, 4, 7]]","[[1, 1, 1, 1, 1], [0, 0, 0, 0, 0]]","[8, 12]",19.8,19,4,0.14,0.135,0.005,"[5, 6, 7, 8, 9]","supersize","control",0,"False","False",5,5,2,1,4286,"implicit-mouselab",21,525677,"supersize",25
"194","mouselab","False","[]","[[7, 4, 4], [7, 7, 8], [8, 6, 4], [6, 2, 4], [4, 6, 6]]","[[4, 4, 4], [4, 4, 4], [4, 4, 4], [4, 4, 4], [4, 4, 4]]","[1, 12, 1, 2, 4]",18.75,20,1,0.122,0.122,0,"[]","supersize","pre-supersize",0,"False","False",2,3,5,4,5144,"implicit-mouselab",22,531988,"supersize",25
"195","mouselab","False","[]","[[3, 2], [7, 5]]","[[4, 4], [4, 4]]","[2, 18]",19.8,21,1,0.094,0.094,0,"[]","supersize","control",0,"False","False",2,2,2,4,1160,"implicit-mouselab",23,534206,"supersize",25
"196","mouselab","False","[]","[[3, 3, 7, 3, 3, 6], [2, 6, 4, 8, 3, 8], [5, 3, 4, 7, 6, 6], [8, 3, 7, 7, 6, 4], [6, 4, 7, 7, 8, 4]]","[[4, 4, 4, 4, 4, 4], [4, 4, 4, 4, 4, 4], [4, 4, 4, 4, 4, 4], [4, 4, 4, 4, 4, 4], [4, 4, 4, 4, 4, 4]]","[4, 9, 5, 1, 1]",18.75,22,3,0.133,0.133,0,"[]","supersize","pre-supersize",0,"False","False",5,6,5,4,3568,"implicit-mouselab",24,539979,"supersize",25
"197","mouselab","False","[]","[[7, 5, 5, 5, 4, 6], [5, 7, 6, 5, 4, 6], [4, 7, 6, 4, 3, 4], [2, 4, 6, 6, 5, 5], [5, 6, 5, 6, 6, 7]]","[[4, 4, 4, 4, 4, 4], [4, 4, 4, 4, 4, 4], [4, 4, 4, 4, 4, 4], [4, 4, 4, 4, 4, 4], [4, 4, 4, 4, 4, 4]]","[1, 2, 4, 11, 2]",18.75,23,1,0.103,0.103,0,"[]","supersize","post-supersize",5,"False","False",5,6,5,4,2901,"implicit-mouselab",25,543964,"supersize",25
"198","mouselab","False","[10, 11, 12, 14, 13]","[[4, 7, 5, 4, 3], [5, 3, 7, 6, 4], [4, 1, 3, 5, 6], [7, 9, 6, 7, 5], [3, 7, 6, 4, 4]]","[[1, 1, 1, 1, 1], [1, 1, 1, 1, 1], [0, 0, 0, 0, 0], [1, 1, 1, 1, 1], [1, 1, 1, 1, 1]]","[5, 1, 7, 4, 3]",18.75,24,4,0.093,0.088,0.005,"[10, 11, 12, 14, 13]","supersize","control",4,"False","True",5,5,5,1,4019,"implicit-mouselab",26,548924,"supersize",25
"199","mouselab","True","[0, 3, 2, 1, 1]","[[3, 8], [7, 3]]","[[0, 0], [0, 0]]","[8, 12]",19.8,1,1,0.1,0.096,0.004,"[0, 3, 2, 1]","supersize","control",0,"False","False",2,2,2,1,48017,"implicit-mouselab",4,164040,"supersize",26
"200","mouselab","True","[17, 11]","[[6, 3, 2, 8, 4], [6, 5, 7, 7, 4], [6, 4, 6, 6, 7], [8, 4, 6, 2, 4], [3, 6, 7, 7, 3]]","[[4, 4, 4, 4, 4], [4, 4, 4, 4, 4], [4, 3, 4, 4, 4], [4, 4, 3, 4, 4], [4, 4, 4, 4, 4]]","[1, 4, 2, 8, 5]",18.75,2,2,0.125,0.123,0.002,"[]","supersize","control",4,"False","False",5,5,5,4,15620,"implicit-mouselab",5,185939,"supersize",26
"201","mouselab","False","[1]","[[8, 5, 4, 5, 8], [6, 4, 5, 3, 6]]","[[1, 0, 1, 1, 1], [1, 1, 1, 1, 1]]","[17, 3]",19.8,5,1,0.097,0.096,0.001,"[1]","supersize","control",3,"False","False",5,5,2,1,5627,"implicit-mouselab",7,196376,"supersize",26
"202","mouselab","False","[10]","[[5, 6, 4, 6, 6, 5], [10, 6, 1, 3, 3, 3]]","[[1, 1, 1, 1, 1, 1], [1, 1, 1, 1, 0, 1]]","[5, 15]",19.8,6,0,0.175,0.174,0.001,"[10]","supersize","pre-supersize",0,"False","True",5,6,2,1,7920,"implicit-mouselab",8,206203,"supersize",26
"203","mouselab","False","[25]","[[2, 6, 6, 6, 2, 3], [4, 4, 3, 2, 7, 6], [5, 5, 7, 6, 6, 2], [4, 5, 6, 8, 3, 8], [6, 6, 6, 4, 5, 5]]","[[4, 4, 4, 4, 4, 4], [4, 4, 4, 4, 4, 4], [4, 4, 4, 4, 4, 4], [4, 4, 4, 4, 4, 4], [4, 3, 4, 4, 4, 4]]","[5, 6, 2, 1, 6]",18.75,7,1,0.105,0.104,0.001,"[]","supersize","pre-supersize",4,"False","False",5,6,5,4,10590,"implicit-mouselab",9,219306,"supersize",26
"204","mouselab","False","[]","[[2, 5, 5, 5, 4, 3], [7, 4, 5, 5, 5, 4], [5, 6, 4, 5, 7, 4], [5, 6, 7, 6, 3, 7], [1, 5, 9, 6, 5, 5]]","[[4, 4, 4, 4, 4, 4], [4, 4, 4, 4, 4, 4], [4, 4, 4, 4, 4, 4], [4, 4, 4, 4, 4, 4], [4, 4, 4, 4, 4, 4]]","[2, 8, 6, 3, 1]",18.75,8,3,0.104,0.104,0,"[]","supersize","post-supersize",5,"False","False",5,6,5,4,13076,"implicit-mouselab",10,234090,"supersize",26
"205","mouselab","False","[1]","[[7, 6, 4, 7, 5], [5, 6, 8, 6, 7], [4, 1, 4, 5, 8], [6, 4, 8, 5, 6], [4, 3, 4, 3, 4]]","[[1, 0, 1, 1, 1], [1, 1, 1, 1, 1], [1, 1, 1, 1, 1], [1, 1, 1, 1, 1], [1, 1, 1, 1, 1]]","[9, 4, 1, 4, 2]",18.75,9,1,0.101,0.1,0.001,"[1]","supersize","control",0,"False","False",5,5,5,1,6989,"implicit-mouselab",11,242893,"supersize",26
"206","mouselab","False","[6]","[[6, 4, 6], [8, 4, 6], [3, 4, 2], [5, 0, 7], [2, 5, 8]]","[[1, 1, 1], [1, 1, 1], [0, 1, 1], [1, 1, 1], [1, 1, 1]]","[6, 3, 5, 5, 1]",18.75,10,2,0.107,0.106,0.001,"[6]","supersize","post-supersize",2,"False","True",2,3,5,1,8156,"implicit-mouselab",12,252649,"supersize",26
"207","mouselab","False","[]","[[3, 3], [6, 2]]","[[1, 1], [1, 1]]","[15, 5]",19.8,11,1,0.055,0.055,0,"[]","supersize","control",0,"False","False",2,2,2,1,3779,"implicit-mouselab",13,257885,"supersize",26
"208","mouselab","False","[]","[[7, 8, 6, 7, 1], [6, 7, 3, 2, 3]]","[[4, 4, 4, 4, 4], [4, 4, 4, 4, 4]]","[7, 13]",19.8,12,2,0.081,0.081,0,"[]","supersize","control",4,"False","False",5,5,2,4,5498,"implicit-mouselab",14,265141,"supersize",26
"209","mouselab","False","[6]","[[7, 6, 3, 7, 6], [8, 5, 5, 5, 6], [3, 5, 5, 4, 8], [5, 4, 3, 6, 7], [2, 3, 4, 5, 5]]","[[4, 4, 4, 4, 4], [4, 3, 4, 4, 4], [4, 4, 4, 4, 4], [4, 4, 4, 4, 4], [4, 4, 4, 4, 4]]","[4, 7, 2, 4, 3]",18.75,13,1,0.094,0.093,0.001,"[]","supersize","control",0,"False","False",5,5,5,4,5677,"implicit-mouselab",15,276272,"supersize",26
"210","mouselab","False","[23, 23, 23, 23]","[[8, 4, 5, 4, 3], [5, 0, 5, 4, 6], [4, 6, 8, 2, 6], [6, 6, 5, 2, 4], [3, 6, 7, 4, 6]]","[[4, 4, 4, 4, 4], [4, 4, 4, 4, 4], [4, 4, 4, 4, 4], [4, 4, 4, 4, 4], [4, 4, 4, 0, 4]]","[6, 6, 2, 2, 4]",18.75,14,3,0.072,0.068,0.004,"[23]","supersize","control",1,"False","False",5,5,5,4,8126,"implicit-mouselab",16,287095,"supersize",26
"211","mouselab","False","[]","[[4, 3, 5], [5, 4, 6], [7, 5, 3], [3, 6, 5], [4, 4, 7]]","[[4, 4, 4], [4, 4, 4], [4, 4, 4], [4, 4, 4], [4, 4, 4]]","[5, 2, 10, 2, 1]",18.75,15,0,0.11,0.11,0,"[]","supersize","post-supersize",2,"False","False",2,3,5,4,6372,"implicit-mouselab",17,295582,"supersize",26
"212","mouselab","False","[]","[[7, 5, 6], [8, 7, 6]]","[[4, 4, 4], [4, 4, 4]]","[17, 3]",19.8,16,1,0.106,0.106,0,"[]","supersize","pre-supersize",2,"False","False",2,3,2,4,3651,"implicit-mouselab",18,300805,"supersize",26
"213","mouselab","False","[]","[[5, 9, 6], [5, 4, 8]]","[[4, 4, 4], [4, 4, 4]]","[4, 16]",19.8,17,2,0.152,0.152,0,"[]","supersize","post-supersize",2,"False","True",2,3,2,4,3958,"implicit-mouselab",19,306341,"supersize",26
"214","mouselab","False","[13]","[[4, 1, 5], [1, 9, 4], [8, 4, 4], [3, 5, 4], [6, 5, 5]]","[[1, 1, 1], [1, 1, 1], [1, 1, 1], [1, 1, 1], [1, 0, 1]]","[4, 4, 2, 4, 6]",18.75,18,1,0.098,0.097,0.001,"[13]","supersize","pre-supersize",2,"False","False",2,3,5,1,5369,"implicit-mouselab",20,313948,"supersize",26
"215","mouselab","False","[]","[[2, 6], [5, 7], [1, 4], [3, 6], [1, 5]]","[[4, 4], [4, 4], [4, 4], [4, 4], [4, 4]]","[7, 3, 5, 2, 3]",18.75,19,1,0.11,0.11,0,"[]","supersize","control",0,"False","False",2,2,5,4,2640,"implicit-mouselab",21,318094,"supersize",26
"216","mouselab","False","[]","[[5, 3], [5, 6]]","[[1, 1], [1, 1]]","[13, 7]",19.8,20,1,0.081,0.081,0,"[]","supersize","control",0,"False","False",2,2,2,1,1696,"implicit-mouselab",22,321627,"supersize",26
"217","mouselab","False","[]","[[7, 4, 8], [4, 7, 6]]","[[1, 1, 1], [1, 1, 1]]","[18, 2]",19.8,21,0,0.134,0.134,0,"[]","supersize","post-supersize",2,"False","False",2,3,2,1,2618,"implicit-mouselab",23,325716,"supersize",26
"218","mouselab","False","[]","[[5, 5], [8, 6], [5, 7], [4, 7], [2, 5]]","[[1, 1], [1, 1], [1, 1], [1, 1], [1, 1]]","[9, 1, 4, 5, 1]",18.75,22,0,0.095,0.095,0,"[]","supersize","control",0,"False","True",2,2,5,1,1795,"implicit-mouselab",24,329355,"supersize",26
"219","mouselab","False","[2]","[[6, 5, 6, 8, 7], [6, 8, 5, 4, 4]]","[[1, 1, 0, 1, 1], [1, 1, 1, 1, 1]]","[16, 4]",19.8,23,3,0.144,0.143,0.001,"[2]","supersize","control",1,"False","False",5,5,2,1,6208,"implicit-mouselab",25,337177,"supersize",26
"220","mouselab","False","[]","[[6, 7, 4, 7, 6, 6], [3, 7, 3, 7, 3, 5]]","[[4, 4, 4, 4, 4, 4], [4, 4, 4, 4, 4, 4]]","[18, 2]",19.8,24,2,0.078,0.078,0,"[]","supersize","pre-supersize",5,"False","False",5,6,2,4,2224,"implicit-mouselab",26,341303,"supersize",26
"221","mouselab","True","[0, 3, 1]","[[4, 5], [9, 6]]","[[0, 0], [1, 0]]","[6, 14]",19.8,1,0,0.15,0.147,0.003,"[0, 3, 1]","supersize","control",1,"False","False",2,2,2,1,35817,"implicit-mouselab",4,325301,"supersize",30
"222","mouselab","True","[0, 2, 21, 14, 21]","[[4, 6, 6, 1, 4], [3, 7, 7, 4, 5], [4, 5, 6, 7, 5], [3, 5, 6, 7, 4], [6, 5, 4, 5, 4]]","[[3, 4, 3, 4, 4], [4, 4, 4, 4, 4], [4, 4, 4, 4, 3], [4, 4, 4, 4, 4], [4, 2, 4, 4, 4]]","[7, 2, 4, 6, 1]",18.75,2,0,0.074,0.069,0.005,"[]","supersize","control",4,"False","False",5,5,5,4,27545,"implicit-mouselab",5,357209,"supersize",30
"223","mouselab","False","[2]","[[10, 6], [4, 5], [4, 6], [8, 9], [4, 5]]","[[4, 4], [3, 4], [4, 4], [4, 4], [4, 4]]","[1, 7, 7, 2, 3]",18.75,5,0,0.094,0.093,0.001,"[]","supersize","control",1,"False","False",2,2,5,4,9874,"implicit-mouselab",7,372072,"supersize",30
"224","mouselab","False","[0]","[[4, 6, 3], [5, 4, 3]]","[[3, 4, 4], [4, 4, 4]]","[6, 14]",19.8,6,1,0.092,0.091,0.001,"[]","supersize","post-supersize",2,"False","False",2,3,2,4,10465,"implicit-mouselab",8,384054,"supersize",30
"225","mouselab","False","[]","[[5, 6, 6], [4, 8, 7], [5, 6, 5], [6, 4, 4], [9, 5, 8]]","[[4, 4, 4], [4, 4, 4], [4, 4, 4], [4, 4, 4], [4, 4, 4]]","[4, 3, 6, 6, 1]",18.75,7,1,0.113,0.113,0,"[]","supersize","pre-supersize",0,"False","False",2,3,5,4,11541,"implicit-mouselab",9,397386,"supersize",30
"226","mouselab","False","[1]","[[7, 7], [7, 6]]","[[4, 3], [4, 4]]","[5, 15]",19.8,8,1,0.125,0.124,0.001,"[]","supersize","control",1,"False","True",2,2,2,4,3899,"implicit-mouselab",10,402681,"supersize",30
"227","mouselab","False","[]","[[5, 10, 5, 7, 6], [8, 7, 5, 6, 6]]","[[4, 4, 4, 4, 4], [4, 4, 4, 4, 4]]","[8, 12]",19.8,9,3,0.128,0.128,0,"[]","supersize","control",0,"False","False",5,5,2,4,5366,"implicit-mouselab",11,409968,"supersize",30
"228","mouselab","False","[4, 3, 2]","[[4, 7], [4, 5], [8, 7], [3, 3], [5, 6]]","[[1, 1], [0, 0], [0, 1], [1, 1], [1, 1]]","[4, 7, 3, 1, 5]",18.75,10,0,0.096,0.093,0.003,"[4, 3, 2]","supersize","control",1,"False","False",2,2,5,1,11522,"implicit-mouselab",12,423106,"supersize",30
"229","mouselab","False","[10]","[[5, 5, 5, 5, 3, 6], [5, 3, 4, 6, 2, 4]]","[[4, 4, 4, 4, 4, 4], [4, 4, 4, 4, 3, 4]]","[10, 10]",19.8,11,3,0.11,0.109,0.001,"[]","supersize","pre-supersize",1,"False","False",5,6,2,4,5731,"implicit-mouselab",13,430312,"supersize",30
"230","mouselab","False","[6, 9, 1, 0]","[[3, 5], [4, 2], [5, 7], [3, 4], [4, 5]]","[[0, 0], [1, 1], [1, 1], [0, 1], [1, 0]]","[14, 2, 2, 1, 1]",18.75,12,1,0.097,0.093,0.004,"[6, 9, 1, 0]","supersize","control",1,"False","True",2,2,5,1,8885,"implicit-mouselab",14,442095,"supersize",30
"231","mouselab","False","[8]","[[7, 3, 3, 7, 5, 2], [6, 5, 7, 4, 4, 6]]","[[4, 4, 4, 4, 4, 4], [4, 4, 3, 4, 4, 4]]","[3, 17]",19.8,13,5,0.108,0.107,0.001,"[]","supersize","post-supersize",5,"False","True",5,6,2,4,7382,"implicit-mouselab",15,450931,"supersize",30
"232","mouselab","False","[6, 9, 8, 11, 7, 10]","[[8, 4, 3, 7, 4, 4], [4, 4, 8, 3, 4, 4]]","[[1, 1, 1, 1, 1, 1], [0, 0, 0, 0, 0, 0]]","[4, 16]",19.8,14,2,0.14,0.134,0.006,"[6, 9, 8, 11, 7, 10]","supersize","pre-supersize",0,"False","False",5,6,2,1,13981,"implicit-mouselab",16,467301,"supersize",30
"233","mouselab","False","[19]","[[4, 6, 6, 7, 4, 5], [5, 7, 6, 7, 6, 5], [3, 5, 5, 5, 7, 7], [4, 5, 4, 3, 2, 6], [3, 5, 2, 6, 7, 4]]","[[4, 4, 4, 4, 4, 4], [4, 4, 4, 4, 4, 4], [4, 4, 4, 4, 4, 4], [4, 3, 4, 4, 4, 4], [4, 4, 4, 4, 4, 4]]","[2, 5, 7, 3, 3]",18.75,15,5,0.114,0.113,0.001,"[]","supersize","post-supersize",5,"False","True",5,6,5,4,8853,"implicit-mouselab",17,478646,"supersize",30
"234","mouselab","False","[18, 16, 15, 17, 19]","[[6, 5, 6, 6, 5], [10, 8, 5, 9, 5], [7, 6, 7, 4, 9], [6, 8, 4, 4, 2], [3, 5, 5, 7, 8]]","[[1, 1, 1, 1, 1], [1, 1, 1, 1, 1], [1, 1, 1, 1, 1], [0, 0, 0, 0, 0], [1, 1, 1, 1, 1]]","[4, 2, 5, 8, 1]",18.75,16,1,0.135,0.13,0.005,"[18, 16, 15, 17, 19]","supersize","control",4,"False","False",5,5,5,1,8886,"implicit-mouselab",18,490162,"supersize",30
"235","mouselab","False","[2, 1, 0, 4, 5]","[[1, 6, 3, 5, 5, 8], [4, 2, 7, 5, 3, 8]]","[[0, 0, 0, 1, 0, 0], [1, 1, 1, 1, 1, 1]]","[16, 4]",19.8,17,5,0.16,0.155,0.005,"[2, 1, 0, 4, 5]","supersize","pre-supersize",3,"False","False",5,6,2,1,13880,"implicit-mouselab",19,505762,"supersize",30
"236","mouselab","False","[]","[[8, 6, 3], [7, 7, 6]]","[[4, 4, 4], [4, 4, 4]]","[14, 6]",19.8,18,0,0.154,0.154,0,"[]","supersize","post-supersize",2,"False","False",2,3,2,4,5305,"implicit-mouselab",20,512673,"supersize",30
"237","mouselab","False","[2, 3]","[[6, 3], [5, 1]]","[[1, 1], [0, 0]]","[4, 16]",19.8,19,0,0.104,0.102,0.002,"[2, 3]","supersize","control",0,"False","True",2,2,2,1,4360,"implicit-mouselab",21,518701,"supersize",30
"238","mouselab","False","[6, 7, 1]","[[5, 6], [6, 5], [5, 6], [4, 5], [6, 4]]","[[1, 0], [1, 1], [1, 1], [0, 0], [1, 1]]","[6, 1, 2, 9, 2]",18.75,20,1,0.106,0.103,0.003,"[6, 7, 1]","supersize","control",0,"False","False",2,2,5,1,9799,"implicit-mouselab",22,529925,"supersize",30
"239","mouselab","False","[]","[[3, 3, 5], [1, 3, 6], [2, 6, 5], [5, 3, 3], [5, 8, 5]]","[[4, 4, 4], [4, 4, 4], [4, 4, 4], [4, 4, 4], [4, 4, 4]]","[3, 7, 3, 2, 5]",18.75,21,1,0.094,0.094,0,"[]","supersize","pre-supersize",1,"False","True",2,3,5,4,5314,"implicit-mouselab",23,543850,"supersize",30
"240","mouselab","False","[18, 19, 20, 21, 22, 23]","[[2, 5, 5, 6, 5, 4], [5, 4, 4, 6, 4, 6], [3, 6, 7, 3, 4, 6], [7, 3, 3, 4, 3, 6], [4, 9, 3, 3, 1, 5]]","[[1, 1, 1, 1, 1, 1], [1, 1, 1, 1, 1, 1], [1, 1, 1, 1, 1, 1], [0, 0, 0, 0, 0, 0], [1, 1, 1, 1, 1, 1]]","[3, 1, 3, 12, 1]",18.75,22,0,0.108,0.102,0.006,"[18, 19, 20, 21, 22, 23]","supersize","post-supersize",5,"False","False",5,6,5,1,12864,"implicit-mouselab",24,558610,"supersize",30
"241","mouselab","False","[24, 23, 22, 21, 20]","[[4, 5, 0, 7, 5], [6, 7, 5, 7, 7], [5, 6, 6, 4, 9], [5, 6, 5, 5, 3], [6, 2, 8, 5, 3]]","[[1, 1, 1, 1, 1], [1, 1, 1, 1, 1], [1, 1, 1, 1, 1], [1, 1, 1, 1, 1], [0, 0, 0, 0, 0]]","[1, 3, 6, 3, 7]",18.75,23,2,0.122,0.117,0.005,"[24, 23, 22, 21, 20]","supersize","control",2,"False","True",5,5,5,1,6742,"implicit-mouselab",25,566442,"supersize",30
"242","mouselab","False","[5, 7, 7, 6, 8, 9]","[[7, 4, 3, 2, 7], [5, 3, 6, 5, 7]]","[[1, 1, 1, 1, 1], [0, 0, 0, 0, 0]]","[7, 13]",19.8,24,4,0.14,0.135,0.005,"[5, 7, 6, 8, 9]","supersize","control",0,"False","False",5,5,2,1,8904,"implicit-mouselab",26,576642,"supersize",30
"243","mouselab","True","[6, 6, 12, 17, 6, 6, 6, 12, 12, 12, 17, 17, 17, 2, 2, 2, 2, 7, 7, 7, 7]","[[5, 6, 8, 5, 5], [6, 4, 2, 2, 6], [7, 8, 2, 5, 4], [7, 4, 4, 1, 4], [6, 5, 3, 6, 5]]","[[4, 4, 0, 4, 4], [4, 0, 0, 4, 4], [4, 4, 0, 4, 4], [4, 4, 0, 4, 4], [4, 4, 4, 4, 4]]","[2, 8, 3, 3, 4]",18.75,1,2,0.062,0.042,0.02,"[6, 12, 17, 2, 7]","supersize","control",1,"False","False",5,5,5,4,21647,"implicit-mouselab",4,285596,"supersize",33
"244","mouselab","True","[0]","[[6, 2], [5, 5]]","[[0, 1], [1, 1]]","[12, 8]",19.8,2,0,0.112,0.111,0.001,"[0]","supersize","control",0,"False","True",2,2,2,1,4719,"implicit-mouselab",5,294595,"supersize",33
"245","mouselab","False","[2, 1, 7, 4]","[[4, 3], [5, 2], [4, 5], [4, 8], [6, 1]]","[[1, 0], [0, 1], [0, 1], [1, 0], [1, 1]]","[8, 3, 3, 4, 2]",18.75,5,1,0.079,0.075,0.004,"[2, 1, 7, 4]","supersize","control",0,"False","False",2,2,5,1,12462,"implicit-mouselab",7,310485,"supersize",33
"246","mouselab","False","[0, 0, 0, 0, 1, 1, 1, 1, 2, 2, 2, 2, 4, 4, 4, 4, 3, 3, 3, 3]","[[6, 4, 2, 6, 7, 8], [6, 7, 5, 6, 6, 5], [6, 9, 6, 7, 3, 6], [6, 7, 4, 5, 5, 4], [6, 3, 3, 6, 5, 2]]","[[0, 0, 0, 0, 0, 4], [4, 4, 4, 4, 4, 4], [4, 4, 4, 4, 4, 4], [4, 4, 4, 4, 4, 4], [4, 4, 4, 4, 4, 4]]","[10, 6, 1, 2, 1]",18.75,6,5,0.126,0.106,0.02,"[0, 1, 2, 4, 3]","supersize","post-supersize",5,"False","True",5,6,5,4,18773,"implicit-mouselab",8,330627,"supersize",33
"247","mouselab","False","[]","[[6, 4, 4], [6, 1, 5]]","[[4, 4, 4], [4, 4, 4]]","[8, 12]",19.8,7,2,0.092,0.092,0,"[]","supersize","post-supersize",2,"False","True",2,3,2,4,4070,"implicit-mouselab",9,335985,"supersize",33
"248","mouselab","False","[]","[[5, 5], [6, 3]]","[[1, 1], [1, 1]]","[8, 12]",19.8,8,0,0.112,0.112,0,"[]","supersize","control",0,"False","True",2,2,2,1,1298,"implicit-mouselab",10,339373,"supersize",33
"249","mouselab","False","[]","[[4, 6, 5, 5, 5], [7, 7, 7, 3, 2], [4, 4, 6, 6, 4], [4, 7, 4, 6, 5], [4, 3, 5, 4, 4]]","[[4, 4, 4, 4, 4], [4, 4, 4, 4, 4], [4, 4, 4, 4, 4], [4, 4, 4, 4, 4], [4, 4, 4, 4, 4]]","[4, 1, 2, 12, 1]",18.75,9,2,0.092,0.092,0,"[]","supersize","control",4,"False","False",5,5,5,4,723,"implicit-mouselab",11,341045,"supersize",33
"250","mouselab","False","[]","[[6, 5, 8, 4, 6, 6], [4, 4, 2, 3, 3, 3]]","[[1, 1, 1, 1, 1, 1], [1, 1, 1, 1, 1, 1]]","[4, 16]",19.8,10,5,0.072,0.072,0,"[]","supersize","post-supersize",5,"False","True",5,6,2,1,2212,"implicit-mouselab",12,344133,"supersize",33
"251","mouselab","False","[]","[[4, 7], [6, 4]]","[[1, 1], [1, 1]]","[18, 2]",19.8,11,1,0.134,0.134,0,"[]","supersize","control",0,"False","False",2,2,2,1,749,"implicit-mouselab",13,345992,"supersize",33
"252","mouselab","False","[]","[[6, 2, 7], [5, 4, 4], [6, 5, 4], [4, 5, 3], [5, 6, 5]]","[[1, 1, 1], [1, 1, 1], [1, 1, 1], [1, 1, 1], [1, 1, 1]]","[3, 7, 1, 4, 5]",18.75,12,2,0.09,0.09,0,"[]","supersize","pre-supersize",2,"False","True",2,3,5,1,986,"implicit-mouselab",14,348858,"supersize",33
"253","mouselab","False","[]","[[7, 1, 4], [4, 4, 4], [8, 6, 5], [4, 4, 7], [5, 3, 7]]","[[4, 4, 4], [4, 4, 4], [4, 4, 4], [4, 4, 4], [4, 4, 4]]","[3, 5, 4, 6, 2]",18.75,13,2,0.108,0.108,0,"[]","supersize","post-supersize",2,"False","True",2,3,5,4,1701,"implicit-mouselab",15,351498,"supersize",33
"254","mouselab","False","[]","[[3, 3, 7, 6, 2], [5, 2, 6, 5, 4], [6, 10, 6, 6, 5], [5, 7, 4, 4, 5], [4, 6, 1, 5, 2]]","[[4, 4, 4, 4, 4], [4, 4, 4, 4, 4], [4, 4, 4, 4, 4], [4, 4, 4, 4, 4], [4, 4, 4, 4, 4]]","[7, 1, 3, 7, 2]",18.75,14,1,0.114,0.114,0,"[]","supersize","control",2,"False","False",5,5,5,4,1090,"implicit-mouselab",16,354051,"supersize",33
"255","mouselab","False","[]","[[4, 4, 5, 3, 4], [4, 7, 6, 6, 4]]","[[1, 1, 1, 1, 1], [1, 1, 1, 1, 1]]","[14, 6]",19.8,15,2,0.106,0.106,0,"[]","supersize","control",3,"False","False",5,5,2,1,704,"implicit-mouselab",17,355545,"supersize",33
"256","mouselab","False","[]","[[5, 5, 7, 6, 4, 5], [6, 3, 2, 6, 8, 4], [5, 5, 6, 2, 6, 6], [2, 6, 3, 7, 3, 5], [5, 3, 6, 4, 4, 6]]","[[1, 1, 1, 1, 1, 1], [1, 1, 1, 1, 1, 1], [1, 1, 1, 1, 1, 1], [1, 1, 1, 1, 1, 1], [1, 1, 1, 1, 1, 1]]","[5, 7, 3, 4, 1]",18.75,16,2,0.085,0.085,0,"[]","supersize","pre-supersize",4,"False","False",5,6,5,1,800,"implicit-mouselab",18,357871,"supersize",33
"257","mouselab","False","[]","[[5, 2, 4, 6, 4, 5], [7, 5, 6, 7, 9, 3]]","[[4, 4, 4, 4, 4, 4], [4, 4, 4, 4, 4, 4]]","[10, 10]",19.8,17,4,0.13,0.13,0,"[]","supersize","pre-supersize",4,"False","True",5,6,2,4,1409,"implicit-mouselab",19,360038,"supersize",33
"258","mouselab","False","[]","[[7, 8], [7, 5]]","[[4, 4], [4, 4]]","[9, 11]",19.8,18,1,0.127,0.127,0,"[]","supersize","control",0,"False","False",2,2,2,4,2664,"implicit-mouselab",20,363980,"supersize",33
"259","mouselab","False","[]","[[5, 4, 6, 4, 5], [4, 5, 7, 6, 9], [7, 5, 4, 3, 8], [7, 6, 3, 6, 5], [5, 4, 3, 1, 4]]","[[1, 1, 1, 1, 1], [1, 1, 1, 1, 1], [1, 1, 1, 1, 1], [1, 1, 1, 1, 1], [1, 1, 1, 1, 1]]","[1, 6, 6, 3, 4]",18.75,19,1,0.098,0.098,0,"[]","supersize","control",3,"False","False",5,5,5,1,1038,"implicit-mouselab",21,365925,"supersize",33
"260","mouselab","False","[]","[[6, 6, 8], [4, 6, 2], [3, 6, 5], [6, 4, 5], [5, 8, 6]]","[[4, 4, 4], [4, 4, 4], [4, 4, 4], [4, 4, 4], [4, 4, 4]]","[1, 4, 3, 3, 9]",18.75,20,1,0.132,0.132,0,"[]","supersize","pre-supersize",1,"False","True",2,3,5,4,1099,"implicit-mouselab",22,367929,"supersize",33
"261","mouselab","False","[]","[[2, 1, 6, 3, 6], [8, 6, 3, 7, 3]]","[[4, 4, 4, 4, 4], [4, 4, 4, 4, 4]]","[10, 10]",19.8,21,1,0.07,0.07,0,"[]","supersize","control",4,"False","False",5,5,2,4,841,"implicit-mouselab",23,369565,"supersize",33
"262","mouselab","False","[]","[[3, 7, 4], [8, 6, 3]]","[[1, 1, 1], [1, 1, 1]]","[4, 16]",19.8,22,0,0.14,0.14,0,"[]","supersize","pre-supersize",0,"False","True",2,3,2,1,1122,"implicit-mouselab",24,371548,"supersize",33
"263","mouselab","False","[]","[[7, 5, 6], [7, 5, 4]]","[[4, 4, 4], [4, 4, 4]]","[14, 6]",19.8,23,2,0.108,0.108,0,"[]","supersize","post-supersize",2,"False","True",2,3,2,4,1941,"implicit-mouselab",25,374358,"supersize",33
"264","mouselab","False","[]","[[5, 2, 6, 4, 4], [2, 7, 6, 3, 7], [4, 5, 2, 5, 3], [3, 2, 7, 4, 5], [3, 5, 2, 5, 1]]","[[1, 1, 1, 1, 1], [1, 1, 1, 1, 1], [1, 1, 1, 1, 1], [1, 1, 1, 1, 1], [1, 1, 1, 1, 1]]","[9, 1, 5, 3, 2]",18.75,24,2,0.095,0.095,0,"[]","supersize","control",3,"False","False",5,5,5,1,987,"implicit-mouselab",26,376329,"supersize",33
"265","mouselab","True","[20, 20, 20, 20, 21, 21, 21, 21, 22, 22, 22, 22, 23, 23, 23, 23, 24, 24, 24, 24]","[[6, 4, 5, 5, 5], [6, 3, 2, 6, 3], [6, 4, 4, 8, 4], [4, 6, 1, 5, 2], [5, 5, 8, 5, 5]]","[[4, 4, 4, 4, 4], [4, 4, 4, 4, 4], [4, 4, 4, 4, 4], [4, 4, 4, 4, 4], [0, 0, 0, 0, 0]]","[2, 6, 1, 2, 9]",18.75,1,2,0.1,0.08,0.02,"[20, 21, 22, 23, 24]","supersize","control",1,"False","False",5,5,5,4,25280,"implicit-mouselab",4,398691,"supersize",36
"266","mouselab","True","[2, 3]","[[5, 3], [4, 3]]","[[1, 1], [0, 0]]","[5, 15]",19.8,2,0,0.085,0.083,0.002,"[2, 3]","supersize","control",1,"False","False",2,2,2,1,12857,"implicit-mouselab",5,414970,"supersize",36
"267","mouselab","False","[]","[[6, 6, 5, 3, 5, 6], [3, 5, 7, 8, 3, 8]]","[[4, 4, 4, 4, 4, 4], [4, 4, 4, 4, 4, 4]]","[1, 19]",19.8,5,1,0.101,0.101,0,"[]","supersize","pre-supersize",1,"False","True",5,6,2,4,20818,"implicit-mouselab",7,447165,"supersize",36
"268","mouselab","False","[4, 5]","[[2, 5], [5, 4], [3, 4], [6, 10], [5, 7]]","[[1, 1], [1, 1], [0, 0], [1, 1], [1, 1]]","[2, 2, 7, 4, 5]",18.75,6,1,0.121,0.119,0.002,"[4, 5]","supersize","control",0,"False","False",2,2,5,1,5453,"implicit-mouselab",8,455381,"supersize",36
"269","mouselab","False","[0, 1]","[[6, 4], [5, 3]]","[[0, 0], [1, 1]]","[18, 2]",19.8,7,0,0.118,0.116,0.002,"[0, 1]","supersize","control",1,"False","False",2,2,2,1,3445,"implicit-mouselab",9,461059,"supersize",36
"270","mouselab","False","[8, 9, 6, 7]","[[4, 6], [2, 2], [3, 3], [7, 5], [2, 3]]","[[1, 1], [1, 1], [1, 1], [0, 0], [0, 0]]","[3, 1, 4, 6, 6]",18.75,8,0,0.08,0.076,0.004,"[8, 9, 6, 7]","supersize","control",1,"False","False",2,2,5,1,7381,"implicit-mouselab",10,469863,"supersize",36
"271","mouselab","False","[]","[[4, 7, 6], [8, 6, 5], [2, 6, 4], [5, 4, 5], [4, 5, 7]]","[[4, 4, 4], [4, 4, 4], [4, 4, 4], [4, 4, 4], [4, 4, 4]]","[1, 6, 4, 4, 5]",18.75,9,0,0.1,0.1,0,"[]","supersize","pre-supersize",0,"False","True",2,3,5,4,3483,"implicit-mouselab",11,476917,"supersize",36
"272","mouselab","False","[]","[[4, 6, 4], [6, 8, 4], [8, 2, 3], [2, 4, 8], [3, 9, 5]]","[[4, 4, 4], [4, 4, 4], [4, 4, 4], [4, 4, 4], [4, 4, 4]]","[8, 7, 3, 1, 1]",18.75,10,1,0.123,0.123,0,"[]","supersize","pre-supersize",0,"False","False",2,3,5,4,31045,"implicit-mouselab",12,511559,"supersize",36
"273","mouselab","False","[4, 5, 8, 9]","[[6, 3], [2, 4], [4, 4], [5, 7], [4, 6]]","[[1, 1], [1, 1], [0, 0], [1, 1], [0, 0]]","[4, 4, 5, 2, 5]",18.75,11,1,0.092,0.088,0.004,"[4, 5, 8, 9]","supersize","control",1,"False","True",2,2,5,1,7223,"implicit-mouselab",13,520377,"supersize",36
"274","mouselab","False","[]","[[5, 7, 6], [5, 7, 4]]","[[4, 4, 4], [4, 4, 4]]","[10, 10]",19.8,12,2,0.1,0.1,0,"[]","supersize","pre-supersize",2,"False","True",2,3,2,4,6741,"implicit-mouselab",14,528243,"supersize",36
"275","mouselab","False","[0, 1, 2, 3, 4]","[[5, 5, 3, 7, 0], [5, 6, 4, 7, 3]]","[[0, 0, 0, 0, 0], [1, 1, 1, 1, 1]]","[18, 2]",19.8,13,3,0.14,0.135,0.005,"[0, 1, 2, 3, 4]","supersize","control",0,"False","False",5,5,2,1,5811,"implicit-mouselab",15,535351,"supersize",36
"276","mouselab","False","[0, 1, 2, 3, 4]","[[4, 3, 2, 3, 4, 5], [3, 6, 3, 3, 1, 3]]","[[0, 0, 0, 0, 0, 1], [1, 1, 1, 1, 1, 1]]","[19, 1]",19.8,14,5,0.098,0.093,0.005,"[0, 1, 2, 3, 4]","supersize","post-supersize",5,"False","True",5,6,2,1,12959,"implicit-mouselab",16,549421,"supersize",36
"277","mouselab","False","[]","[[6, 4, 9, 4, 6], [5, 6, 5, 7, 7], [5, 9, 5, 9, 6], [7, 8, 6, 6, 6], [5, 2, 4, 3, 8]]","[[4, 4, 4, 4, 4], [4, 4, 4, 4, 4], [4, 4, 4, 4, 4], [4, 4, 4, 4, 4], [4, 4, 4, 4, 4]]","[1, 5, 2, 6, 6]",18.75,15,2,0.104,0.104,0,"[]","supersize","control",2,"False","True",5,5,5,4,10013,"implicit-mouselab",17,560747,"supersize",36
"278","mouselab","False","[3, 4]","[[3, 6, 4], [5, 8, 2]]","[[1, 1, 1], [0, 0, 1]]","[5, 15]",19.8,16,1,0.15,0.148,0.002,"[3, 4]","supersize","post-supersize",2,"False","False",2,3,2,1,29647,"implicit-mouselab",18,602869,"supersize",36
"279","mouselab","False","[]","[[6, 6], [6, 8]]","[[4, 4], [4, 4]]","[14, 6]",19.8,17,0,0.12,0.12,0,"[]","supersize","control",1,"False","False",2,2,2,4,5021,"implicit-mouselab",19,609071,"supersize",36
"280","mouselab","False","[]","[[3, 3, 5, 2, 5], [5, 5, 5, 3, 2], [6, 4, 3, 2, 7], [4, 5, 2, 7, 7], [5, 6, 4, 7, 5]]","[[4, 4, 4, 4, 4], [4, 4, 4, 4, 4], [4, 4, 4, 4, 4], [4, 4, 4, 4, 4], [4, 4, 4, 4, 4]]","[6, 1, 4, 6, 3]",18.75,18,2,0.071,0.071,0,"[]","supersize","control",4,"False","False",5,5,5,4,4588,"implicit-mouselab",20,614739,"supersize",36
"281","mouselab","False","[]","[[7, 7, 4, 6, 4], [2, 7, 4, 2, 3]]","[[4, 4, 4, 4, 4], [4, 4, 4, 4, 4]]","[19, 1]",19.8,19,3,0.116,0.116,0,"[]","supersize","control",3,"False","True",5,5,2,4,2749,"implicit-mouselab",21,618527,"supersize",36
"282","mouselab","False","[]","[[6, 6, 4], [3, 6, 7], [7, 2, 4], [5, 3, 9], [5, 6, 4]]","[[4, 4, 4], [4, 4, 4], [4, 4, 4], [4, 4, 4], [4, 4, 4]]","[6, 3, 3, 1, 7]",18.75,20,1,0.105,0.105,0,"[]","supersize","pre-supersize",0,"False","False",2,3,5,4,15335,"implicit-mouselab",22,639159,"supersize",36
"283","mouselab","False","[0, 1, 2, 3, 4]","[[5, 3, 5, 7, 2, 7], [5, 5, 5, 5, 5, 7]]","[[0, 0, 0, 0, 0, 1], [1, 1, 1, 1, 1, 1]]","[18, 2]",19.8,21,3,0.136,0.131,0.005,"[0, 1, 2, 3, 4]","supersize","post-supersize",5,"False","False",5,6,2,1,7620,"implicit-mouselab",23,647827,"supersize",36
"284","mouselab","False","[10, 11, 12, 13, 14]","[[5, 6, 3, 5, 8], [3, 4, 7, 5, 4], [7, 7, 6, 6, 6], [8, 5, 4, 5, 6], [5, 4, 6, 6, 3]]","[[1, 1, 1, 1, 1], [1, 1, 1, 1, 1], [0, 0, 0, 0, 0], [1, 1, 1, 1, 1], [1, 1, 1, 1, 1]]","[5, 1, 6, 4, 4]",18.75,22,1,0.112,0.107,0.005,"[10, 11, 12, 13, 14]","supersize","control",2,"False","False",5,5,5,1,6241,"implicit-mouselab",24,657019,"supersize",36
"285","mouselab","False","[12, 13, 14, 15, 16]","[[5, 1, 6, 3, 3, 4], [0, 5, 4, 1, 6, 8], [10, 5, 9, 4, 3, 3], [4, 8, 6, 4, 7, 8], [6, 6, 7, 4, 7, 6]]","[[1, 1, 1, 1, 1, 1], [1, 1, 1, 1, 1, 1], [0, 0, 0, 0, 0, 1], [1, 1, 1, 1, 1, 1], [1, 1, 1, 1, 1, 1]]","[2, 6, 8, 3, 1]",18.75,23,0,0.108,0.103,0.005,"[12, 13, 14, 15, 16]","supersize","post-supersize",5,"False","False",5,6,5,1,7363,"implicit-mouselab",25,665415,"supersize",36
"286","mouselab","False","[]","[[4, 5, 1, 9, 5, 7], [6, 5, 5, 3, 7, 6]]","[[4, 4, 4, 4, 4, 4], [4, 4, 4, 4, 4, 4]]","[8, 12]",19.8,24,2,0.068,0.068,0,"[]","supersize","post-supersize",5,"False","False",5,6,2,4,18430,"implicit-mouselab",26,686127,"supersize",36
"287","mouselab","True","[]","[[7, 4], [5, 8]]","[[4, 4], [4, 4]]","[6, 14]",19.8,1,1,0.136,0.136,0,"[]","supersize","control",1,"False","True",2,2,2,4,2798,"implicit-mouselab",4,118560,"supersize",37
"288","mouselab","True","[5, 2, 9, 4]","[[5, 5, 4, 5, 5], [3, 8, 4, 7, 7], [7, 5, 4, 4, 7], [5, 5, 6, 6, 4], [3, 4, 5, 5, 6]]","[[1, 1, 0, 1, 0], [0, 1, 1, 1, 0], [1, 1, 1, 1, 1], [1, 1, 1, 1, 1], [1, 1, 1, 1, 1]]","[12, 3, 1, 2, 2]",18.75,2,4,0.108,0.104,0.004,"[5, 2, 9, 4]","supersize","control",1,"False","False",5,5,5,1,14127,"implicit-mouselab",5,136033,"supersize",37
"289","mouselab","False","[]","[[5, 5, 6, 4, 5, 2], [6, 6, 9, 7, 7, 5]]","[[1, 1, 1, 1, 1, 1], [1, 1, 1, 1, 1, 1]]","[10, 10]",19.8,5,4,0.12,0.12,0,"[]","supersize","pre-supersize",4,"False","True",5,6,2,1,3680,"implicit-mouselab",7,143129,"supersize",37
"290","mouselab","False","[6, 6, 6, 6]","[[8, 4, 7, 8, 6, 8], [5, 6, 6, 4, 4, 4], [6, 2, 4, 3, 6, 4], [4, 4, 5, 5, 8, 6], [4, 7, 7, 2, 7, 3]]","[[4, 4, 4, 4, 4, 4], [0, 4, 4, 4, 4, 4], [4, 4, 4, 4, 4, 4], [4, 4, 4, 4, 4, 4], [4, 4, 4, 4, 4, 4]]","[2, 7, 2, 6, 3]",18.75,6,5,0.097,0.093,0.004,"[6]","supersize","post-supersize",5,"False","True",5,6,5,4,12351,"implicit-mouselab",8,158624,"supersize",37
"291","mouselab","False","[]","[[5, 6, 4, 4, 7, 1], [4, 6, 5, 6, 7, 7], [6, 5, 4, 4, 4, 6], [5, 4, 9, 6, 6, 4], [2, 6, 6, 4, 5, 6]]","[[1, 1, 1, 1, 1, 1], [1, 1, 1, 1, 1, 1], [1, 1, 1, 1, 1, 1], [1, 1, 1, 1, 1, 1], [1, 1, 1, 1, 1, 1]]","[2, 11, 3, 1, 3]",18.75,7,4,0.124,0.124,0,"[]","supersize","pre-supersize",4,"False","True",5,6,5,1,4823,"implicit-mouselab",9,166320,"supersize",37
"292","mouselab","False","[]","[[4, 4], [8, 5], [6, 7], [5, 7], [4, 6]]","[[4, 4], [4, 4], [4, 4], [4, 4], [4, 4]]","[7, 3, 4, 5, 1]",18.75,8,1,0.112,0.112,0,"[]","supersize","control",1,"False","True",2,2,5,4,6038,"implicit-mouselab",10,173401,"supersize",37
"293","mouselab","False","[]","[[5, 4], [4, 8]]","[[4, 4], [4, 4]]","[12, 8]",19.8,9,0,0.092,0.092,0,"[]","supersize","control",0,"False","True",2,2,2,4,3110,"implicit-mouselab",11,177649,"supersize",37
"294","mouselab","False","[]","[[5, 3], [6, 7]]","[[4, 4], [4, 4]]","[3, 17]",19.8,10,1,0.128,0.128,0,"[]","supersize","control",0,"False","False",2,2,2,4,2183,"implicit-mouselab",12,181664,"supersize",37
"295","mouselab","False","[0, 5]","[[6, 6, 4], [2, 4, 8], [3, 6, 5], [3, 7, 5], [9, 6, 3]]","[[0, 1, 1], [1, 1, 0], [1, 1, 1], [1, 1, 1], [1, 1, 1]]","[1, 2, 6, 10, 1]",18.75,11,2,0.103,0.101,0.002,"[0, 5]","supersize","pre-supersize",1,"False","False",2,3,5,1,8183,"implicit-mouselab",13,193168,"supersize",37
"296","mouselab","False","[]","[[5, 5, 2, 4, 9], [4, 4, 7, 3, 4], [4, 4, 3, 4, 4], [5, 2, 5, 4, 4], [8, 6, 5, 5, 3]]","[[4, 4, 4, 4, 4], [4, 4, 4, 4, 4], [4, 4, 4, 4, 4], [4, 4, 4, 4, 4], [4, 4, 4, 4, 4]]","[1, 4, 2, 5, 8]",18.75,12,2,0.101,0.101,0,"[]","supersize","control",3,"False","False",5,5,5,4,3639,"implicit-mouselab",14,198360,"supersize",37
"297","mouselab","False","[]","[[6, 4], [2, 2], [7, 4], [7, 2], [2, 2]]","[[4, 4], [4, 4], [4, 4], [4, 4], [4, 4]]","[5, 5, 4, 5, 1]",18.75,13,0,0.105,0.105,0,"[]","supersize","control",1,"False","False",2,2,5,4,6032,"implicit-mouselab",15,205409,"supersize",37
"298","mouselab","False","[]","[[5, 2, 4, 6, 5, 4], [6, 6, 7, 5, 9, 9]]","[[1, 1, 1, 1, 1, 1], [1, 1, 1, 1, 1, 1]]","[11, 9]",19.8,14,5,0.125,0.125,0,"[]","supersize","post-supersize",5,"False","True",5,6,2,1,4151,"implicit-mouselab",16,210816,"supersize",37
"299","mouselab","False","[2, 3]","[[4, 4], [5, 3]]","[[1, 1], [0, 0]]","[4, 16]",19.8,15,0,0.096,0.094,0.002,"[2, 3]","supersize","control",0,"False","True",2,2,2,1,3727,"implicit-mouselab",17,216585,"supersize",37
"300","mouselab","False","[4, 5]","[[5, 5], [7, 3], [4, 8], [4, 1], [5, 4]]","[[1, 1], [1, 1], [0, 0], [1, 1], [1, 1]]","[4, 2, 10, 2, 2]",18.75,16,1,0.116,0.114,0.002,"[4, 5]","supersize","control",0,"False","False",2,2,5,1,4406,"implicit-mouselab",18,223104,"supersize",37
"301","mouselab","False","[]","[[4, 4, 2], [5, 6, 5], [8, 4, 5], [3, 8, 5], [6, 7, 5]]","[[4, 4, 4], [4, 4, 4], [4, 4, 4], [4, 4, 4], [4, 4, 4]]","[4, 4, 2, 2, 8]",18.75,17,2,0.088,0.088,0,"[]","supersize","post-supersize",2,"False","True",2,3,5,4,4399,"implicit-mouselab",19,228776,"supersize",37
"302","mouselab","False","[]","[[4, 4, 6, 2, 4, 2], [2, 3, 6, 7, 6, 2]]","[[4, 4, 4, 4, 4, 4], [4, 4, 4, 4, 4, 4]]","[16, 4]",19.8,18,0,0.072,0.072,0,"[]","supersize","post-supersize",5,"False","False",5,6,2,4,4439,"implicit-mouselab",20,235048,"supersize",37
"303","mouselab","False","[]","[[7, 5, 4, 4, 3, 4], [3, 3, 6, 4, 4, 6]]","[[4, 4, 4, 4, 4, 4], [4, 4, 4, 4, 4, 4]]","[2, 18]",19.8,19,5,0.116,0.116,0,"[]","supersize","post-supersize",5,"False","True",5,6,2,4,4423,"implicit-mouselab",21,243248,"supersize",37
"304","mouselab","False","[6, 7]","[[3, 5], [6, 2], [6, 4], [3, 4], [7, 4]]","[[1, 1], [1, 1], [1, 1], [0, 0], [1, 1]]","[4, 4, 2, 9, 1]",18.75,20,1,0.076,0.074,0.002,"[6, 7]","supersize","control",0,"False","False",2,2,5,1,4640,"implicit-mouselab",22,249616,"supersize",37
"305","mouselab","False","[20, 21, 22, 23, 24]","[[5, 6, 3, 5, 5], [6, 5, 8, 5, 6], [5, 5, 5, 4, 4], [3, 4, 6, 6, 7], [3, 4, 4, 3, 6]]","[[1, 1, 1, 1, 1], [1, 1, 1, 1, 1], [1, 1, 1, 1, 1], [1, 1, 1, 1, 1], [0, 0, 0, 0, 0]]","[2, 2, 1, 3, 12]",18.75,21,4,0.119,0.114,0.005,"[20, 21, 22, 23, 24]","supersize","control",1,"False","False",5,5,5,1,5767,"implicit-mouselab",23,257416,"supersize",37
"306","mouselab","False","[]","[[7, 4, 5, 7, 6, 6], [6, 5, 5, 6, 4, 5]]","[[1, 1, 1, 1, 1, 1], [1, 1, 1, 1, 1, 1]]","[12, 8]",19.8,22,2,0.1,0.1,0,"[]","supersize","pre-supersize",2,"False","True",5,6,2,1,3119,"implicit-mouselab",24,262080,"supersize",37
"307","mouselab","False","[]","[[2, 1, 7], [4, 3, 6]]","[[4, 4, 4], [4, 4, 4]]","[12, 8]",19.8,23,2,0.132,0.132,0,"[]","supersize","pre-supersize",2,"False","True",2,3,2,4,3151,"implicit-mouselab",25,266561,"supersize",37
"308","mouselab","False","[0, 2]","[[4, 4, 6, 5, 3], [5, 6, 7, 3, 7]]","[[0, 1, 0, 1, 1], [1, 1, 1, 1, 1]]","[18, 2]",19.8,24,2,0.122,0.12,0.002,"[0, 2]","supersize","control",0,"False","False",5,5,2,1,5437,"implicit-mouselab",26,273216,"supersize",37
"309","mouselab","True","[0, 0, 0, 0, 1, 1, 1, 1]","[[6, 8], [5, 2]]","[[0, 0], [4, 4]]","[12, 8]",19.8,1,1,0.112,0.104,0.008,"[0, 1]","supersize","control",1,"False","True",2,2,2,4,12013,"implicit-mouselab",4,282481,"supersize",38
"310","mouselab","True","[15, 16, 17, 18, 19, 10, 11, 12]","[[6, 5, 4, 5, 6], [3, 4, 6, 5, 6], [5, 6, 3, 5, 4], [6, 5, 6, 4, 5], [4, 6, 2, 4, 5]]","[[1, 1, 1, 1, 1], [1, 1, 1, 1, 1], [0, 0, 0, 1, 1], [0, 0, 0, 0, 0], [1, 1, 1, 1, 1]]","[1, 2, 4, 10, 3]",18.75,2,0,0.104,0.096,0.008,"[15, 16, 17, 18, 19, 10, 11, 12]","supersize","control",2,"False","False",5,5,5,1,14733,"implicit-mouselab",5,298422,"supersize",38
"311","mouselab","False","[0, 0, 0, 0]","[[8, 8, 6, 7, 3, 3], [6, 4, 4, 5, 5, 5]]","[[0, 4, 4, 4, 4, 4], [4, 4, 4, 4, 4, 4]]","[11, 9]",19.8,5,0,0.142,0.138,0.004,"[0]","supersize","post-supersize",5,"False","False",5,6,2,4,12946,"implicit-mouselab",7,314989,"supersize",38
"312","mouselab","False","[0, 4, 2, 1, 3, 9, 10, 11]","[[3, 5, 4, 7, 6, 6], [7, 4, 5, 6, 6, 6]]","[[0, 0, 0, 0, 0, 1], [1, 1, 1, 0, 0, 0]]","[11, 9]",19.8,6,3,0.131,0.123,0.008,"[0, 4, 2, 1, 3, 9, 10, 11]","supersize","pre-supersize",5,"False","False",5,6,2,1,13593,"implicit-mouselab",8,329585,"supersize",38
"313","mouselab","False","[6, 7, 9, 10, 8, 11]","[[3, 7, 6], [1, 2, 6], [6, 4, 5], [5, 5, 3], [4, 4, 4]]","[[1, 1, 1], [1, 1, 1], [0, 0, 0], [0, 0, 0], [1, 1, 1]]","[1, 4, 8, 6, 1]",18.75,7,0,0.089,0.083,0.006,"[6, 7, 9, 10, 8, 11]","supersize","post-supersize",2,"False","False",2,3,5,1,16339,"implicit-mouselab",9,349048,"supersize",38
"314","mouselab","False","[7, 7, 7, 7, 6, 6, 6, 6, 8, 8, 8, 8]","[[4, 6, 5], [7, 10, 5], [4, 4, 2], [4, 6, 4], [4, 6, 8]]","[[4, 4, 4], [4, 4, 4], [0, 0, 0], [4, 4, 4], [4, 4, 4]]","[1, 5, 12, 1, 1]",18.75,8,1,0.116,0.104,0.012,"[7, 6, 8]","supersize","pre-supersize",1,"False","True",2,3,5,4,15732,"implicit-mouselab",10,365894,"supersize",38
"315","mouselab","False","[4, 5, 9, 8]","[[4, 6], [6, 4], [8, 7], [5, 6], [7, 6]]","[[1, 1], [1, 1], [0, 0], [1, 1], [0, 0]]","[1, 2, 12, 2, 3]",18.75,9,0,0.143,0.139,0.004,"[4, 5, 9, 8]","supersize","control",0,"False","True",2,2,5,1,13783,"implicit-mouselab",11,380969,"supersize",38
"316","mouselab","False","[5, 6, 7, 8, 9]","[[6, 8, 3, 5, 6], [3, 9, 2, 6, 7]]","[[1, 1, 1, 1, 1], [0, 0, 0, 0, 0]]","[2, 18]",19.8,10,1,0.178,0.173,0.005,"[5, 6, 7, 8, 9]","supersize","control",4,"False","False",5,5,2,1,11627,"implicit-mouselab",12,393606,"supersize",38
"317","mouselab","False","[4, 5]","[[7, 8], [5, 4], [7, 4], [5, 5], [4, 5]]","[[1, 1], [1, 1], [0, 0], [1, 1], [1, 1]]","[5, 3, 2, 5, 5]",18.75,11,1,0.11,0.108,0.002,"[4, 5]","supersize","control",0,"False","False",2,2,5,1,11856,"implicit-mouselab",13,407159,"supersize",38
"318","mouselab","False","[5, 5, 5, 5, 6, 6, 6, 6, 7, 7, 7, 7]","[[6, 6, 5, 5, 6], [5, 5, 7, 6, 6], [5, 3, 5, 8, 5], [5, 3, 3, 3, 4], [7, 4, 4, 5, 6]]","[[4, 4, 4, 4, 4], [0, 0, 0, 4, 4], [4, 4, 4, 4, 4], [4, 4, 4, 4, 4], [4, 4, 4, 4, 4]]","[5, 6, 2, 3, 4]",18.75,12,2,0.102,0.09,0.012,"[5, 6, 7]","supersize","control",3,"False","False",5,5,5,4,17097,"implicit-mouselab",14,425127,"supersize",38
"319","mouselab","False","[6, 6, 6, 6, 7, 7, 7, 7, 8, 8, 8, 8, 9, 9, 9, 9, 10, 10, 10, 10]","[[4, 4, 5, 7, 3, 4], [3, 2, 4, 6, 6, 6]]","[[4, 4, 4, 4, 4, 4], [0, 0, 0, 0, 0, 4]]","[4, 16]",19.8,13,3,0.124,0.104,0.02,"[6, 7, 8, 9, 10]","supersize","post-supersize",5,"False","False",5,6,2,4,16346,"implicit-mouselab",15,442421,"supersize",38
"320","mouselab","False","[0, 1, 2, 3, 4]","[[5, 5, 6, 2, 5], [8, 7, 6, 6, 3]]","[[0, 0, 0, 0, 0], [1, 1, 1, 1, 1]]","[10, 10]",19.8,14,2,0.12,0.115,0.005,"[0, 1, 2, 3, 4]","supersize","control",0,"False","False",5,5,2,1,12295,"implicit-mouselab",16,455608,"supersize",38
"321","mouselab","False","[23, 23, 23, 23]","[[8, 5, 3, 6, 5, 3], [7, 5, 2, 7, 7, 0], [9, 7, 5, 4, 3, 6], [7, 5, 5, 5, 1, 3], [5, 3, 6, 3, 7, 4]]","[[4, 4, 4, 4, 4, 4], [4, 4, 4, 4, 4, 4], [4, 4, 4, 4, 4, 4], [4, 4, 4, 4, 4, 0], [4, 4, 4, 4, 4, 4]]","[4, 4, 5, 2, 5]",18.75,15,5,0.068,0.064,0.004,"[23]","supersize","pre-supersize",5,"False","True",5,6,5,4,10282,"implicit-mouselab",17,469194,"supersize",38
"322","mouselab","False","[6, 6, 6, 6, 7, 7, 7, 7, 12, 12, 12, 12]","[[2, 6, 5], [4, 5, 3], [5, 5, 7], [2, 4, 4], [3, 6, 4]]","[[4, 4, 4], [4, 4, 4], [0, 0, 4], [4, 4, 4], [0, 4, 4]]","[1, 3, 8, 3, 5]",18.75,16,2,0.102,0.09,0.012,"[6, 7, 12]","supersize","post-supersize",2,"False","True",2,3,5,4,10166,"implicit-mouselab",18,480738,"supersize",38
"323","mouselab","False","[5, 5, 5, 5, 6]","[[7, 6, 4, 6, 5], [8, 1, 4, 6, 10]]","[[4, 4, 4, 4, 4], [0, 3, 4, 4, 4]]","[1, 19]",19.8,17,0,0.159,0.154,0.005,"[5]","supersize","control",0,"False","True",5,5,2,4,4858,"implicit-mouselab",19,486579,"supersize",38
"324","mouselab","False","[0, 0, 0, 0, 1, 1, 1, 1]","[[6, 4], [2, 3]]","[[0, 0], [4, 4]]","[14, 6]",19.8,18,0,0.096,0.088,0.008,"[0, 1]","supersize","control",0,"False","True",2,2,2,4,5192,"implicit-mouselab",20,492516,"supersize",38
"325","mouselab","False","[29, 29, 29, 29, 28, 28, 28, 28]","[[5, 7, 9, 3, 4, 3], [1, 8, 5, 4, 4, 3], [8, 1, 4, 6, 8, 7], [4, 6, 7, 6, 7, 6], [8, 7, 6, 2, 7, 5]]","[[4, 4, 4, 4, 4, 4], [4, 4, 4, 4, 4, 4], [4, 4, 4, 4, 4, 4], [4, 4, 4, 4, 4, 4], [4, 4, 4, 4, 0, 0]]","[2, 3, 2, 2, 11]",18.75,19,4,0.127,0.119,0.008,"[29, 28]","supersize","pre-supersize",5,"False","False",5,6,5,4,14745,"implicit-mouselab",21,508261,"supersize",38
"326","mouselab","False","[0, 1]","[[7, 4], [7, 1]]","[[0, 0], [1, 1]]","[17, 3]",19.8,20,0,0.14,0.138,0.002,"[0, 1]","supersize","control",0,"False","True",2,2,2,1,4115,"implicit-mouselab",22,513150,"supersize",38
"327","mouselab","False","[1, 2]","[[4, 6, 5], [2, 5, 6]]","[[1, 0, 0], [1, 1, 1]]","[19, 1]",19.8,21,1,0.119,0.117,0.002,"[1, 2]","supersize","pre-supersize",0,"False","False",2,3,2,1,3973,"implicit-mouselab",23,517881,"supersize",38
"328","mouselab","False","[6, 6, 6, 6, 7, 7, 7, 7]","[[5, 4], [3, 4], [4, 4], [6, 2], [8, 7]]","[[4, 4], [4, 4], [4, 4], [0, 0], [4, 4]]","[4, 1, 4, 6, 5]",18.75,22,0,0.115,0.107,0.008,"[6, 7]","supersize","control",1,"False","False",2,2,5,4,12508,"implicit-mouselab",24,531308,"supersize",38
"329","mouselab","False","[2, 3, 0, 1]","[[7, 5], [5, 5]]","[[0, 0], [0, 0]]","[7, 13]",19.8,23,0,0.114,0.11,0.004,"[2, 3, 0, 1]","supersize","control",1,"False","False",2,2,2,1,5239,"implicit-mouselab",25,537256,"supersize",38
"330","mouselab","False","[24, 25, 26, 27, 28, 20, 2, 0, 18]","[[6, 2, 3, 6, 3, 3], [4, 7, 7, 5, 6, 2], [9, 5, 8, 8, 7, 6], [4, 5, 5, 6, 7, 5], [4, 6, 6, 4, 5, 4]]","[[0, 1, 0, 1, 1, 1], [1, 1, 1, 1, 1, 1], [1, 1, 1, 1, 1, 1], [0, 1, 0, 1, 1, 1], [0, 0, 0, 0, 0, 1]]","[5, 4, 4, 5, 2]",18.75,24,0,0.11,0.101,0.009,"[24, 25, 26, 27, 28, 20, 2, 0, 18]","supersize","post-supersize",5,"False","False",5,6,5,1,24320,"implicit-mouselab",26,562546,"supersize",38
"331","mouselab","True","[1, 7]","[[8, 5, 5, 7, 4], [6, 3, 8, 7, 6]]","[[1, 0, 1, 1, 1], [1, 1, 0, 1, 1]]","[10, 10]",19.8,1,2,0.13,0.128,0.002,"[1, 7]","supersize","control",1,"False","False",5,5,2,1,9813,"implicit-mouselab",4,404042,"supersize",39
"332","mouselab","True","[2, 2, 2, 2, 3, 3, 3, 3]","[[5, 6], [3, 5], [5, 5], [5, 2], [3, 7]]","[[4, 4], [0, 0], [4, 4], [4, 4], [4, 4]]","[1, 10, 5, 3, 1]",18.75,2,1,0.094,0.086,0.008,"[2, 3]","supersize","control",1,"False","True",2,2,5,4,13898,"implicit-mouselab",5,422143,"supersize",39
"333","mouselab","False","[6, 6, 6, 6, 8, 8, 8, 8]","[[7, 6, 9, 4, 7], [8, 6, 7, 3, 6]]","[[4, 4, 4, 4, 4], [4, 0, 4, 0, 4]]","[4, 16]",19.8,5,1,0.12,0.112,0.008,"[6, 8]","supersize","control",3,"False","False",5,5,2,4,9731,"implicit-mouselab",7,436247,"supersize",39
"334","mouselab","False","[3, 3, 3, 3]","[[6, 2, 4, 7, 8], [3, 4, 6, 4, 4]]","[[4, 4, 4, 0, 4], [4, 4, 4, 4, 4]]","[17, 3]",19.8,6,3,0.131,0.127,0.004,"[3]","supersize","control",1,"False","False",5,5,2,4,6348,"implicit-mouselab",8,444750,"supersize",39
"335","mouselab","False","[0, 0, 0, 0]","[[7, 3], [8, 4]]","[[0, 4], [4, 4]]","[10, 10]",19.8,7,0,0.15,0.146,0.004,"[0]","supersize","control",0,"False","True",2,2,2,4,5549,"implicit-mouselab",9,452654,"supersize",39
"336","mouselab","False","[2, 3]","[[3, 5], [5, 7], [4, 6], [5, 3], [6, 7]]","[[1, 1], [0, 0], [1, 1], [1, 1], [1, 1]]","[2, 7, 5, 4, 2]",18.75,8,1,0.115,0.113,0.002,"[2, 3]","supersize","control",1,"False","True",2,2,5,1,7264,"implicit-mouselab",10,462414,"supersize",39
"337","mouselab","False","[10, 13]","[[6, 3, 6, 5, 1], [8, 4, 3, 4, 6], [4, 4, 6, 5, 5], [5, 8, 4, 2, 5], [3, 5, 4, 6, 7]]","[[1, 1, 1, 1, 1], [1, 1, 1, 1, 1], [0, 1, 1, 0, 1], [1, 1, 1, 1, 1], [1, 1, 1, 1, 1]]","[3, 2, 7, 2, 6]",18.75,9,3,0.098,0.096,0.002,"[10, 13]","supersize","control",3,"False","True",5,5,5,1,5429,"implicit-mouselab",11,470434,"supersize",39
"338","mouselab","False","[19, 19, 19, 19]","[[4, 4, 6, 4, 4, 7], [4, 4, 4, 6, 4, 4], [5, 3, 7, 6, 7, 4], [4, 4, 5, 4, 5, 6], [8, 8, 5, 5, 5, 5]]","[[4, 4, 4, 4, 4, 4], [4, 4, 4, 4, 4, 4], [4, 4, 4, 4, 4, 4], [4, 0, 4, 4, 4, 4], [4, 4, 4, 4, 4, 4]]","[2, 4, 2, 9, 3]",18.75,10,5,0.107,0.103,0.004,"[19]","supersize","post-supersize",5,"False","True",5,6,5,4,13935,"implicit-mouselab",12,487794,"supersize",39
