type,is_practice,click_values,payoff_matrix,cost_matrix,weights,weights_deviation,trial_num,selected_option,gross_earnings,net_earnings,click_cost,uncovered_values,experiment_type,trial_nudge,nudge_index,chose_nudge,og_baskets,shown_baskets,num_features,cost,reaction_time,naive,trial_type,trial_index,time_elapsed,nudge_type,participant_id
mouselab,True,"[7, 27, 12, 10, 20]","[[7, 6, 3, 3, 4], [6, 4, 3, 5, 8], [7, 4, 4, 6, 4], [5, 5, 2, 6, 6], [0, 4, 5, 8, 3]]","[[1, 1, 1, 1, 1], [1, 0, 1, 1, 0], [0, 1, 1, 1, 1], [1, 1, 0, 1, 1], [1, 1, 1, 0, 1]]","[4, 11, 4, 4, 7]",12,1,4,0.055,0.05333333333333334,0.0016666666666666668,"[7, 27, 12, 10, 20]",supersize,control,-1,False,5,5,5,1,10425,True,implicit-mouselab,4,98189,supersize,0
mouselab,True,[],"[[5, 7, 4, 5, 6], [2, 6, 5, 4, 5], [5, 6, 4, 8, 6], [2, 2, 4, 6, 4], [5, 5, 2, 6, 7]]","[[4, 4, 4, 4, 4], [4, 4, 4, 4, 4], [4, 4, 4, 4, 4], [4, 4, 4, 4, 4], [4, 4, 4, 4, 4]]","[5, 3, 14, 4, 4]",16,2,2,0.038,0.038,0.0,[],supersize,control,-1,False,5,5,5,4,2104,True,implicit-mouselab,5,102100,supersize,0
mouselab,False,[],"[[5, 5, 5, 6, 8], [4, 7, 3, 7, 3], [7, 7, 5, 4, 4], [6, 7, 3, 7, 1], [6, 4, 5, 6, 10]]","[[4, 4, 4, 4, 4], [4, 4, 4, 4, 4], [4, 4, 4, 4, 4], [4, 4, 4, 4, 4], [4, 4, 4, 4, 4]]","[6, 3, 1, 11, 9]",16,3,1,0.057,0.057,0.0,[],supersize,control,-1,False,5,5,5,4,927,True,implicit-mouselab,7,105125,supersize,0
mouselab,False,[],"[[5, 6, 7, 5, 5, 3], [5, 7, 7, 6, 7, 6], [6, 8, 5, 4, 4, 6], [4, 6, 5, 7, 0, 8], [6, 4, 4, 5, 7, 5]]","[[4, 4, 4, 4, 4, 4], [4, 4, 4, 4, 4, 4], [4, 4, 4, 4, 4, 4], [4, 4, 4, 4, 4, 4], [4, 4, 4, 4, 4, 4]]","[2, 6, 9, 4, 9]",12,4,3,0.052,0.052,0.0,[],supersize,pre-supersize,4,False,5,6,5,4,976,True,implicit-mouselab,8,107349,supersize,0
mouselab,False,[],"[[5, 4, 7, 4, 5, 2], [4, 3, 6, 7, 5, 5], [4, 4, 4, 5, 3, 4], [4, 6, 4, 6, 6, 1], [3, 8, 7, 4, 3, 7]]","[[4, 4, 4, 4, 4, 4], [4, 4, 4, 4, 4, 4], [4, 4, 4, 4, 4, 4], [4, 4, 4, 4, 4, 4], [4, 4, 4, 4, 4, 4]]","[9, 10, 1, 9, 1]",20,5,1,0.044,0.044,0.0,[],supersize,post-supersize,5,False,5,6,5,4,3760,True,implicit-mouselab,9,111932,supersize,0
mouselab,False,[],"[[3, 3, 4, 7, 8, 5], [5, 4, 3, 5, 5, 2], [4, 6, 3, 4, 9, 8], [6, 6, 2, 3, 4, 5], [5, 6, 4, 5, 7, 5]]","[[4, 4, 4, 4, 4, 4], [4, 4, 4, 4, 4, 4], [4, 4, 4, 4, 4, 4], [4, 4, 4, 4, 4, 4], [4, 4, 4, 4, 4, 4]]","[3, 18, 6, 2, 1]",24,6,2,0.031,0.031,0.0,[],supersize,post-supersize,5,False,5,6,5,4,2241,True,implicit-mouselab,10,115278,supersize,0
mouselab,False,[],"[[2, 4, 2, 4, 4], [4, 4, 1, 3, 7], [2, 7, 6, 4, 6], [2, 3, 6, 2, 7], [9, 5, 7, 5, 5]]","[[4, 4, 4, 4, 4], [4, 4, 4, 4, 4], [4, 4, 4, 4, 4], [4, 4, 4, 4, 4], [4, 4, 4, 4, 4]]","[5, 5, 3, 5, 12]",12,7,3,0.039,0.039,0.0,[],supersize,control,-1,False,5,5,5,4,1655,True,implicit-mouselab,11,118837,supersize,0
mouselab,False,[],"[[3, 6, 2, 6, 4, 4], [4, 2, 4, 7, 6, 6], [4, 6, 6, 5, 5, 1], [3, 4, 5, 5, 4, 7], [6, 7, 4, 6, 5, 4]]","[[4, 4, 4, 4, 4, 4], [4, 4, 4, 4, 4, 4], [4, 4, 4, 4, 4, 4], [4, 4, 4, 4, 4, 4], [4, 4, 4, 4, 4, 4]]","[6, 12, 3, 7, 2]",14,8,2,0.04,0.04,0.0,[],supersize,pre-supersize,1,False,5,6,5,4,3287,True,implicit-mouselab,12,123278,supersize,0
mouselab,False,[],"[[6, 4, 6, 4, 3, 5], [3, 6, 4, 4, 4, 4], [7, 5, 4, 1, 4, 0], [7, 4, 5, 3, 4, 7], [3, 5, 9, 3, 4, 5]]","[[4, 4, 4, 4, 4, 4], [4, 4, 4, 4, 4, 4], [4, 4, 4, 4, 4, 4], [4, 4, 4, 4, 4, 4], [4, 4, 4, 4, 4, 4]]","[2, 3, 2, 20, 3]",28,9,4,0.039,0.039,0.0,[],supersize,post-supersize,5,False,5,6,5,4,2023,True,implicit-mouselab,13,127077,supersize,0
mouselab,False,[],"[[4, 3, 6, 5, 5, 6], [5, 3, 4, 7, 5, 5], [2, 3, 10, 3, 7, 5], [4, 4, 5, 3, 5, 3], [5, 2, 7, 5, 8, 5]]","[[4, 4, 4, 4, 4, 4], [4, 4, 4, 4, 4, 4], [4, 4, 4, 4, 4, 4], [4, 4, 4, 4, 4, 4], [4, 4, 4, 4, 4, 4]]","[9, 6, 5, 9, 1]",12,10,1,0.033,0.033,0.0,[],supersize,pre-supersize,4,False,5,6,5,4,1663,True,implicit-mouselab,14,129742,supersize,0
mouselab,False,[],"[[5, 8, 6, 8, 5, 3], [7, 5, 6, 6, 9, 4], [4, 6, 5, 5, 3, 3], [4, 6, 5, 5, 4, 5], [6, 6, 2, 6, 5, 6]]","[[1, 1, 1, 1, 1, 1], [1, 1, 1, 1, 1, 1], [1, 1, 1, 1, 1, 1], [1, 1, 1, 1, 1, 1], [1, 1, 1, 1, 1, 1]]","[7, 2, 1, 10, 10]",18,11,5,0.047,0.047,0.0,[],supersize,pre-supersize,5,True,5,6,5,1,871,True,implicit-mouselab,15,131526,supersize,0
mouselab,False,[],"[[6, 8, 3, 3, 5, 6], [4, 4, 8, 6, 6, 3], [9, 2, 4, 2, 8, 4], [6, 5, 5, 7, 5, 4], [9, 3, 6, 6, 6, 5]]","[[1, 1, 1, 1, 1, 1], [1, 1, 1, 1, 1, 1], [1, 1, 1, 1, 1, 1], [1, 1, 1, 1, 1, 1], [1, 1, 1, 1, 1, 1]]","[1, 4, 2, 4, 19]",26,12,4,0.06,0.06,0.0,[],supersize,pre-supersize,4,True,5,6,5,1,918,True,implicit-mouselab,16,133485,supersize,0
mouselab,False,[],"[[3, 7, 6, 4, 4], [7, 7, 5, 4, 2], [5, 4, 4, 3, 6], [5, 6, 5, 5, 4], [5, 2, 5, 7, 9]]","[[1, 1, 1, 1, 1], [1, 1, 1, 1, 1], [1, 1, 1, 1, 1], [1, 1, 1, 1, 1], [1, 1, 1, 1, 1]]","[1, 1, 17, 3, 8]",26,13,2,0.045,0.045,0.0,[],supersize,control,-1,False,5,5,5,1,2384,True,implicit-mouselab,17,136925,supersize,0
mouselab,False,[],"[[5, 5, 6, 4, 4, 7], [5, 7, 3, 5, 6, 7], [5, 6, 5, 3, 5, 5], [3, 4, 6, 10, 6, 7], [5, 5, 5, 5, 6, 8]]","[[1, 1, 1, 1, 1, 1], [1, 1, 1, 1, 1, 1], [1, 1, 1, 1, 1, 1], [1, 1, 1, 1, 1, 1], [1, 1, 1, 1, 1, 1]]","[2, 7, 4, 8, 9]",12,14,2,0.049,0.049,0.0,[],supersize,pre-supersize,2,True,5,6,5,1,1687,True,implicit-mouselab,18,139349,supersize,0
mouselab,False,[],"[[3, 5, 6, 5, 5], [6, 3, 8, 7, 6], [5, 4, 7, 7, 5], [6, 8, 6, 5, 5], [6, 6, 2, 5, 6]]","[[4, 4, 4, 4, 4], [4, 4, 4, 4, 4], [4, 4, 4, 4, 4], [4, 4, 4, 4, 4], [4, 4, 4, 4, 4]]","[7, 3, 10, 4, 6]",10,15,0,0.05,0.05,0.0,[],supersize,control,-1,False,5,5,5,4,1184,True,implicit-mouselab,19,141525,supersize,0
mouselab,False,[],"[[5, 5, 7, 2, 4], [4, 4, 7, 5, 3], [5, 7, 5, 10, 6], [6, 4, 5, 5, 5], [3, 7, 6, 4, 4]]","[[1, 1, 1, 1, 1], [1, 1, 1, 1, 1], [1, 1, 1, 1, 1], [1, 1, 1, 1, 1], [1, 1, 1, 1, 1]]","[1, 4, 7, 14, 4]",18,16,1,0.051,0.051,0.0,[],supersize,control,-1,False,5,5,5,1,911,True,implicit-mouselab,20,143222,supersize,0
mouselab,False,[],"[[6, 3, 5, 7, 5, 7], [6, 6, 9, 4, 3, 5], [8, 6, 1, 4, 3, 6], [6, 8, 7, 7, 5, 2], [5, 4, 6, 6, 6, 3]]","[[4, 4, 4, 4, 4, 4], [4, 4, 4, 4, 4, 4], [4, 4, 4, 4, 4, 4], [4, 4, 4, 4, 4, 4], [4, 4, 4, 4, 4, 4]]","[14, 7, 5, 2, 2]",18,17,5,0.058,0.058,0.0,[],supersize,post-supersize,5,True,5,6,5,4,1991,True,implicit-mouselab,21,146270,supersize,0
mouselab,False,[],"[[2, 5, 5, 5, 5], [7, 2, 3, 3, 9], [5, 6, 6, 5, 4], [1, 6, 5, 6, 4], [5, 3, 5, 3, 5]]","[[1, 1, 1, 1, 1], [1, 1, 1, 1, 1], [1, 1, 1, 1, 1], [1, 1, 1, 1, 1], [1, 1, 1, 1, 1]]","[14, 1, 6, 8, 1]",20,18,2,0.051,0.051,0.0,[],supersize,control,-1,False,5,5,5,1,774,True,implicit-mouselab,22,148054,supersize,0
mouselab,False,[],"[[3, 3, 5, 2, 4], [6, 2, 2, 5, 5], [3, 2, 6, 6, 5], [8, 6, 6, 4, 7], [5, 4, 5, 5, 6]]","[[4, 4, 4, 4, 4], [4, 4, 4, 4, 4], [4, 4, 4, 4, 4], [4, 4, 4, 4, 4], [4, 4, 4, 4, 4]]","[1, 3, 2, 5, 19]",26,19,3,0.048,0.048,0.0,[],supersize,control,-1,False,5,5,5,4,848,True,implicit-mouselab,23,149797,supersize,0
mouselab,False,[],"[[7, 3, 7, 6, 5, 8], [3, 6, 6, 6, 5, 4], [6, 5, 6, 5, 5, 7], [8, 6, 4, 6, 2, 1], [8, 4, 4, 3, 5, 4]]","[[4, 4, 4, 4, 4, 4], [4, 4, 4, 4, 4, 4], [4, 4, 4, 4, 4, 4], [4, 4, 4, 4, 4, 4], [4, 4, 4, 4, 4, 4]]","[1, 2, 4, 22, 1]",32,20,1,0.057,0.057,0.0,[],supersize,pre-supersize,5,False,5,6,5,4,1071,True,implicit-mouselab,24,151861,supersize,0
mouselab,False,[],"[[4, 4, 5, 9, 3, 6], [6, 5, 3, 3, 4, 5], [3, 7, 4, 6, 3, 7], [5, 8, 6, 4, 4, 8], [4, 3, 4, 4, 3, 2]]","[[1, 1, 1, 1, 1, 1], [1, 1, 1, 1, 1, 1], [1, 1, 1, 1, 1, 1], [1, 1, 1, 1, 1, 1], [1, 1, 1, 1, 1, 1]]","[17, 3, 2, 5, 3]",22,21,3,0.069,0.069,0.0,[],supersize,pre-supersize,0,False,5,6,5,1,535,True,implicit-mouselab,25,153525,supersize,0
mouselab,False,[],"[[4, 7, 9, 4, 2, 5], [3, 1, 5, 5, 9, 7], [5, 6, 4, 4, 4, 6], [3, 7, 3, 4, 2, 5], [6, 6, 5, 6, 6, 10]]","[[1, 1, 1, 1, 1, 1], [1, 1, 1, 1, 1, 1], [1, 1, 1, 1, 1, 1], [1, 1, 1, 1, 1, 1], [1, 1, 1, 1, 1, 1]]","[2, 3, 22, 1, 2]",32,22,4,0.044,0.044,0.0,[],supersize,pre-supersize,3,False,5,6,5,1,759,True,implicit-mouselab,26,154967,supersize,0
mouselab,False,[],"[[3, 6, 5, 8, 4], [6, 4, 6, 6, 5], [5, 5, 5, 6, 8], [5, 2, 6, 4, 6], [5, 3, 5, 3, 4]]","[[4, 4, 4, 4, 4], [4, 4, 4, 4, 4], [4, 4, 4, 4, 4], [4, 4, 4, 4, 4], [4, 4, 4, 4, 4]]","[5, 1, 8, 7, 9]",12,23,2,0.053,0.053,0.0,[],supersize,control,-1,False,5,5,5,4,742,True,implicit-mouselab,27,156557,supersize,0
mouselab,False,[],"[[5, 6, 6, 8, 5, 5], [4, 6, 7, 3, 4, 7], [6, 6, 5, 5, 4, 7], [9, 4, 5, 7, 5, 6], [4, 2, 4, 6, 5, 7]]","[[4, 4, 4, 4, 4, 4], [4, 4, 4, 4, 4, 4], [4, 4, 4, 4, 4, 4], [4, 4, 4, 4, 4, 4], [4, 4, 4, 4, 4, 4]]","[5, 1, 3, 18, 3]",24,24,4,0.049,0.049,0.0,[],supersize,pre-supersize,5,False,5,6,5,4,615,True,implicit-mouselab,28,157797,supersize,0
mouselab,False,[],"[[3, 2, 4, 4, 2], [10, 4, 7, 7, 3], [7, 7, 3, 7, 6], [4, 8, 6, 6, 4], [3, 1, 5, 5, 6]]","[[1, 1, 1, 1, 1], [1, 1, 1, 1, 1], [1, 1, 1, 1, 1], [1, 1, 1, 1, 1], [1, 1, 1, 1, 1]]","[1, 19, 2, 7, 1]",28,25,0,0.079,0.079,0.0,[],supersize,control,-1,False,5,5,5,1,631,True,implicit-mouselab,29,159229,supersize,0
mouselab,False,[],"[[7, 4, 5, 7, 8, 3], [5, 2, 5, 4, 5, 4], [5, 4, 8, 4, 4, 5], [4, 3, 6, 5, 8, 5], [7, 5, 4, 6, 6, 9]]","[[1, 1, 1, 1, 1, 1], [1, 1, 1, 1, 1, 1], [1, 1, 1, 1, 1, 1], [1, 1, 1, 1, 1, 1], [1, 1, 1, 1, 1, 1]]","[6, 3, 6, 2, 13]",14,26,5,0.062,0.062,0.0,[],supersize,post-supersize,5,True,5,6,5,1,2279,True,implicit-mouselab,30,162637,supersize,0
mouselab,False,[],"[[2, 2, 7, 4, 4, 7], [5, 6, 7, 2, 7, 3], [5, 4, 5, 5, 6, 5], [3, 7, 6, 6, 3, 3], [7, 3, 3, 7, 5, 2]]","[[1, 1, 1, 1, 1, 1], [1, 1, 1, 1, 1, 1], [1, 1, 1, 1, 1, 1], [1, 1, 1, 1, 1, 1], [1, 1, 1, 1, 1, 1]]","[1, 15, 9, 3, 2]",24,27,2,0.06,0.06,0.0,[],supersize,post-supersize,5,False,5,6,5,1,1311,True,implicit-mouselab,31,165373,supersize,0
mouselab,False,[],"[[7, 5, 8, 6, 2], [3, 3, 5, 6, 1], [5, 7, 7, 4, 6], [3, 6, 7, 4, 4], [5, 5, 3, 5, 3]]","[[1, 1, 1, 1, 1], [1, 1, 1, 1, 1], [1, 1, 1, 1, 1], [1, 1, 1, 1, 1], [1, 1, 1, 1, 1]]","[3, 8, 9, 8, 2]",14,28,3,0.048,0.048,0.0,[],supersize,control,-1,False,5,5,5,1,503,True,implicit-mouselab,32,166925,supersize,0
mouselab,False,[],"[[6, 6, 8, 5, 7, 5], [6, 4, 2, 4, 2, 4], [7, 3, 2, 6, 4, 4], [6, 5, 5, 5, 2, 5], [5, 4, 5, 0, 4, 4]]","[[1, 1, 1, 1, 1, 1], [1, 1, 1, 1, 1, 1], [1, 1, 1, 1, 1, 1], [1, 1, 1, 1, 1, 1], [1, 1, 1, 1, 1, 1]]","[12, 6, 2, 5, 5]",12,29,1,0.049,0.049,0.0,[],supersize,post-supersize,5,False,5,6,5,1,1951,True,implicit-mouselab,33,169735,supersize,0
mouselab,False,[],"[[3, 5, 7, 5, 4, 4], [5, 5, 6, 2, 7, 5], [6, 3, 3, 5, 4, 4], [7, 6, 3, 6, 3, 5], [5, 3, 6, 2, 5, 4]]","[[1, 1, 1, 1, 1, 1], [1, 1, 1, 1, 1, 1], [1, 1, 1, 1, 1, 1], [1, 1, 1, 1, 1, 1], [1, 1, 1, 1, 1, 1]]","[8, 4, 4, 5, 9]",10,30,2,0.054,0.054,0.0,[],supersize,post-supersize,5,False,5,6,5,1,1326,True,implicit-mouselab,34,172037,supersize,0
mouselab,False,[],"[[4, 3, 3, 7, 2, 5], [3, 3, 3, 6, 6, 8], [4, 1, 5, 4, 8, 7], [5, 5, 6, 5, 6, 5], [5, 6, 1, 3, 6, 7]]","[[1, 1, 1, 1, 1, 1], [1, 1, 1, 1, 1, 1], [1, 1, 1, 1, 1, 1], [1, 1, 1, 1, 1, 1], [1, 1, 1, 1, 1, 1]]","[16, 1, 2, 3, 8]",24,31,3,0.055,0.055,0.0,[],supersize,post-supersize,5,False,5,6,5,1,1054,True,implicit-mouselab,35,173901,supersize,0
mouselab,False,[],"[[7, 6, 3, 7, 7, 5], [5, 6, 7, 6, 3, 4], [4, 1, 8, 5, 3, 8], [6, 5, 5, 7, 3, 6], [6, 6, 6, 6, 3, 7]]","[[4, 4, 4, 4, 4, 4], [4, 4, 4, 4, 4, 4], [4, 4, 4, 4, 4, 4], [4, 4, 4, 4, 4, 4], [4, 4, 4, 4, 4, 4]]","[9, 2, 1, 3, 15]",24,32,4,0.042,0.042,0.0,[],supersize,post-supersize,5,False,5,6,5,4,1335,True,implicit-mouselab,36,175988,supersize,0
mouselab,True,"[2, 9, 27, 21, 15, 3, 26, 20, 14, 8]","[[6, 6, 3, 6, 5], [6, 3, 6, 4, 4], [6, 5, 7, 6, 5], [4, 4, 4, 5, 2], [7, 6, 8, 6, 4]]","[[1, 1, 0, 0, 1], [1, 1, 0, 0, 1], [1, 1, 0, 0, 1], [1, 1, 0, 0, 1], [1, 1, 0, 0, 1]]","[3, 12, 3, 10, 2]",20,1,2,0.053,0.049666666666666665,0.0033333333333333335,"[2, 9, 27, 21, 15, 3, 26, 20, 14, 8]",supersize,control,-1,False,5,5,5,1,76850,True,implicit-mouselab,4,236108,supersize,1
mouselab,True,"[1, 1, 1, 3, 9, 15, 21, 27]","[[5, 5, 5, 5, 6], [4, 3, 5, 5, 7], [7, 6, 7, 1, 7], [5, 4, 5, 8, 6], [6, 6, 7, 6, 6]]","[[4, 1, 4, 3, 4], [4, 4, 4, 3, 4], [4, 4, 4, 3, 4], [4, 4, 4, 3, 4], [4, 4, 4, 3, 4]]","[6, 3, 1, 18, 2]",24,2,3,0.067,0.06433333333333334,0.0026666666666666666,[],supersize,control,-1,False,5,5,5,4,26439,True,implicit-mouselab,5,270175,supersize,1
mouselab,False,"[1, 7, 13, 19, 25]","[[2, 4, 4, 4, 6], [5, 6, 3, 5, 6], [6, 6, 5, 5, 5], [8, 7, 6, 3, 3], [2, 4, 2, 2, 4]]","[[4, 3, 4, 4, 4], [4, 3, 4, 4, 4], [4, 3, 4, 4, 4], [4, 3, 4, 4, 4], [4, 3, 4, 4, 4]]","[1, 5, 8, 4, 12]",16,3,1,0.053,0.051333333333333335,0.0016666666666666668,[],supersize,control,-1,False,5,5,5,4,19445,True,implicit-mouselab,7,299164,supersize,1
mouselab,False,"[3, 9, 15, 21, 27]","[[4, 5, 4, 7, 5], [6, 7, 8, 4, 2], [5, 4, 6, 7, 6], [8, 7, 7, 4, 3], [8, 7, 3, 5, 3]]","[[4, 4, 4, 3, 4], [4, 4, 4, 3, 4], [4, 4, 4, 3, 4], [4, 4, 4, 3, 4], [4, 4, 4, 3, 4]]","[11, 1, 8, 9, 1]",20,4,3,0.059,0.05733333333333333,0.0016666666666666668,[],supersize,control,-1,False,5,5,5,4,7915,True,implicit-mouselab,8,309710,supersize,1
mouselab,False,"[0, 6, 12, 18, 24, 4, 10, 16, 22]","[[7, 6, 2, 6, 5, 4], [6, 0, 5, 5, 5, 2], [5, 3, 3, 6, 6, 7], [3, 6, 7, 5, 5, 7], [5, 7, 9, 6, 7, 2]]","[[0, 1, 1, 1, 0, 1], [0, 1, 1, 1, 0, 1], [0, 1, 1, 1, 0, 1], [0, 1, 1, 1, 0, 1], [0, 1, 1, 1, 1, 1]]","[1, 5, 10, 7, 7]",12,5,4,0.058,0.055,0.003,"[0, 6, 12, 18, 24, 4, 10, 16, 22]",supersize,pre-supersize,4,True,5,6,5,1,27131,True,implicit-mouselab,9,338663,supersize,1
mouselab,False,"[9, 15, 21, 27, 5, 11, 17, 23, 29, 26, 20, 14, 8, 2]","[[6, 4, 10, 5, 3, 1], [6, 4, 4, 2, 4, 3], [4, 3, 8, 5, 4, 8], [5, 4, 5, 5, 5, 4], [6, 4, 4, 4, 4, 5]]","[[1, 1, 0, 1, 1, 0], [1, 1, 0, 0, 1, 0], [1, 1, 0, 0, 1, 0], [1, 1, 0, 0, 1, 0], [1, 1, 0, 0, 1, 0]]","[3, 1, 13, 5, 8]",18,6,2,0.065,0.060333333333333336,0.004666666666666667,"[9, 15, 21, 27, 5, 11, 17, 23, 29, 26, 20, 14, 8, 2]",supersize,pre-supersize,3,False,5,6,5,1,33478,True,implicit-mouselab,10,375266,supersize,1
mouselab,False,"[11, 17, 23, 29, 28, 22, 16, 10, 4, 1, 7, 13, 19, 25]","[[4, 6, 5, 5, 5, 6], [7, 6, 7, 6, 3, 5], [4, 5, 7, 3, 6, 3], [4, 5, 4, 5, 5, 1], [6, 6, 7, 3, 4, 6]]","[[1, 0, 1, 1, 0, 1], [1, 0, 1, 1, 0, 0], [1, 0, 1, 1, 0, 0], [1, 0, 1, 1, 0, 0], [1, 0, 1, 1, 0, 0]]","[11, 8, 3, 5, 3]",14,7,1,0.057,0.052333333333333336,0.004666666666666667,"[11, 17, 23, 29, 28, 22, 16, 10, 4, 1, 7, 13, 19, 25]",supersize,post-supersize,5,False,5,6,5,1,82806,True,implicit-mouselab,11,461864,supersize,1
mouselab,False,[],"[[6, 7, 4, 7, 4], [2, 6, 4, 4, 7], [5, 4, 6, 2, 5], [7, 7, 5, 3, 5], [6, 7, 7, 4, 3]]","[[1, 1, 1, 1, 1], [1, 1, 1, 1, 1], [1, 1, 1, 1, 1], [1, 1, 1, 1, 1], [1, 1, 1, 1, 1]]","[4, 8, 3, 2, 13]",18,8,2,0.056,0.056,0.0,[],supersize,control,-1,False,5,5,5,1,7873,True,implicit-mouselab,12,477766,supersize,1
mouselab,False,"[11, 17]","[[5, 7, 3, 6, 6, 5], [6, 2, 8, 5, 7, 2], [6, 4, 5, 6, 7, 8], [8, 4, 6, 5, 5, 6], [4, 4, 5, 5, 3, 4]]","[[4, 4, 4, 4, 4, 4], [4, 4, 4, 4, 4, 3], [4, 4, 4, 4, 4, 4], [4, 4, 4, 4, 4, 4], [4, 4, 4, 4, 4, 4]]","[3, 1, 3, 4, 19]",26,9,5,0.047,0.04666666666666667,0.0003333333333333333,[],supersize,post-supersize,5,True,5,6,5,4,32290,True,implicit-mouselab,13,512591,supersize,1
mouselab,False,[],"[[6, 5, 7, 4, 5, 10], [5, 6, 4, 2, 6, 5], [4, 6, 6, 3, 4, 4], [5, 3, 6, 6, 10, 5], [4, 6, 5, 8, 4, 4]]","[[4, 4, 4, 4, 4, 4], [4, 4, 4, 4, 4, 4], [4, 4, 4, 4, 4, 4], [4, 4, 4, 4, 4, 4], [4, 4, 4, 4, 4, 4]]","[6, 14, 2, 3, 5]",16,10,5,0.058,0.058,0.0,[],supersize,post-supersize,5,True,5,6,5,4,16638,True,implicit-mouselab,14,531514,supersize,1
mouselab,False,[],"[[6, 2, 7, 4, 7, 7], [4, 6, 8, 9, 5, 8], [6, 4, 7, 4, 5, 7], [5, 5, 7, 5, 7, 7], [6, 5, 3, 6, 4, 5]]","[[1, 1, 1, 1, 1, 1], [1, 1, 1, 1, 1, 1], [1, 1, 1, 1, 1, 1], [1, 1, 1, 1, 1, 1], [1, 1, 1, 1, 1, 1]]","[10, 7, 2, 4, 7]",12,11,2,0.063,0.063,0.0,[],supersize,pre-supersize,2,True,5,6,5,1,3255,True,implicit-mouselab,15,537744,supersize,1
mouselab,False,[],"[[5, 2, 7, 5, 4, 4], [7, 8, 6, 6, 2, 6], [5, 5, 8, 5, 5, 6], [5, 2, 8, 1, 7, 5], [3, 6, 6, 4, 5, 4]]","[[4, 4, 4, 4, 4, 4], [4, 4, 4, 4, 4, 4], [4, 4, 4, 4, 4, 4], [4, 4, 4, 4, 4, 4], [4, 4, 4, 4, 4, 4]]","[4, 5, 11, 3, 7]",12,12,3,0.045,0.045,0.0,[],supersize,pre-supersize,3,True,5,6,5,4,15413,True,implicit-mouselab,16,555631,supersize,1
mouselab,False,[],"[[5, 6, 5, 5, 10, 2], [6, 5, 2, 6, 5, 5], [2, 8, 6, 4, 7, 8], [6, 4, 6, 3, 7, 5], [6, 5, 8, 8, 5, 4]]","[[4, 4, 4, 4, 4, 4], [4, 4, 4, 4, 4, 4], [4, 4, 4, 4, 4, 4], [4, 4, 4, 4, 4, 4], [4, 4, 4, 4, 4, 4]]","[7, 3, 9, 8, 3]",12,13,1,0.059,0.059,0.0,[],supersize,post-supersize,5,False,5,6,5,4,4964,True,implicit-mouselab,17,562872,supersize,1
mouselab,False,[],"[[5, 5, 3, 5, 7], [4, 6, 5, 5, 6], [7, 5, 3, 7, 7], [4, 4, 3, 4, 7], [5, 6, 5, 4, 3]]","[[4, 4, 4, 4, 4], [4, 4, 4, 4, 4], [4, 4, 4, 4, 4], [4, 4, 4, 4, 4], [4, 4, 4, 4, 4]]","[7, 7, 5, 6, 5]",4,14,4,0.061,0.061,0.0,[],supersize,control,-1,False,5,5,5,4,7881,True,implicit-mouselab,18,574764,supersize,1
mouselab,False,[],"[[3, 5, 5, 4, 8, 6], [7, 3, 5, 6, 5, 4], [3, 2, 7, 7, 5, 5], [6, 5, 7, 2, 4, 8], [6, 5, 7, 5, 5, 5]]","[[4, 4, 4, 4, 4, 4], [4, 4, 4, 4, 4, 4], [4, 4, 4, 4, 4, 4], [4, 4, 4, 4, 4, 4], [4, 4, 4, 4, 4, 4]]","[7, 5, 2, 2, 14]",18,15,1,0.045,0.045,0.0,[],supersize,pre-supersize,3,False,5,6,5,4,3874,True,implicit-mouselab,19,581034,supersize,1
mouselab,False,[],"[[2, 2, 5, 6, 7, 4], [6, 7, 5, 5, 6, 7], [5, 6, 6, 2, 6, 3], [7, 5, 4, 2, 6, 2], [4, 9, 6, 7, 5, 6]]","[[1, 1, 1, 1, 1, 1], [1, 1, 1, 1, 1, 1], [1, 1, 1, 1, 1, 1], [1, 1, 1, 1, 1, 1], [1, 1, 1, 1, 1, 1]]","[9, 4, 6, 4, 7]",8,16,0,0.043,0.043,0.0,[],supersize,post-supersize,5,False,5,6,5,1,6107,True,implicit-mouselab,20,589208,supersize,1
mouselab,False,[],"[[3, 7, 2, 4, 1], [4, 6, 6, 6, 6], [5, 2, 8, 6, 4], [8, 6, 4, 5, 3], [5, 6, 5, 2, 7]]","[[4, 4, 4, 4, 4], [4, 4, 4, 4, 4], [4, 4, 4, 4, 4], [4, 4, 4, 4, 4], [4, 4, 4, 4, 4]]","[3, 11, 5, 6, 5]",10,17,3,0.049,0.049,0.0,[],supersize,control,-1,False,5,5,5,4,2295,True,implicit-mouselab,21,593742,supersize,1
mouselab,False,[],"[[6, 5, 7, 3, 5, 6], [6, 2, 5, 3, 5, 4], [5, 8, 6, 8, 4, 5], [5, 4, 6, 5, 6, 5], [6, 4, 4, 7, 4, 8]]","[[4, 4, 4, 4, 4, 4], [4, 4, 4, 4, 4, 4], [4, 4, 4, 4, 4, 4], [4, 4, 4, 4, 4, 4], [4, 4, 4, 4, 4, 4]]","[9, 5, 4, 7, 5]",8,18,5,0.056,0.056,0.0,[],supersize,pre-supersize,0,False,5,6,5,4,3473,True,implicit-mouselab,22,599062,supersize,1
mouselab,False,[],"[[6, 4, 6, 3, 1, 4], [6, 4, 4, 4, 6, 3], [6, 4, 3, 4, 4, 7], [7, 8, 4, 0, 4, 5], [5, 6, 7, 5, 6, 3]]","[[1, 1, 1, 1, 1, 1], [1, 1, 1, 1, 1, 1], [1, 1, 1, 1, 1, 1], [1, 1, 1, 1, 1, 1], [1, 1, 1, 1, 1, 1]]","[8, 16, 1, 4, 1]",24,19,5,0.037,0.037,0.0,[],supersize,post-supersize,5,True,5,6,5,1,9130,True,implicit-mouselab,23,610022,supersize,1
mouselab,False,[],"[[4, 6, 7, 10, 4, 4], [6, 4, 5, 7, 1, 6], [6, 7, 5, 5, 3, 2], [6, 4, 6, 8, 8, 3], [3, 6, 6, 2, 4, 7]]","[[4, 4, 4, 4, 4, 4], [4, 4, 4, 4, 4, 4], [4, 4, 4, 4, 4, 4], [4, 4, 4, 4, 4, 4], [4, 4, 4, 4, 4, 4]]","[10, 2, 7, 1, 10]",18,20,2,0.06,0.06,0.0,[],supersize,pre-supersize,0,False,5,6,5,4,3183,True,implicit-mouselab,24,615041,supersize,1
mouselab,False,[],"[[6, 4, 3, 8, 5, 0], [7, 2, 5, 5, 6, 7], [4, 4, 7, 9, 5, 4], [5, 5, 7, 5, 6, 1], [6, 3, 5, 5, 2, 7]]","[[4, 4, 4, 4, 4, 4], [4, 4, 4, 4, 4, 4], [4, 4, 4, 4, 4, 4], [4, 4, 4, 4, 4, 4], [4, 4, 4, 4, 4, 4]]","[3, 10, 4, 10, 3]",16,21,3,0.058,0.058,0.0,[],supersize,post-supersize,5,False,5,6,5,4,5082,True,implicit-mouselab,25,622543,supersize,1
mouselab,False,[],"[[4, 8, 7, 5, 4], [8, 5, 4, 4, 7], [4, 6, 3, 7, 4], [5, 6, 5, 7, 7], [5, 5, 2, 5, 6]]","[[1, 1, 1, 1, 1], [1, 1, 1, 1, 1], [1, 1, 1, 1, 1], [1, 1, 1, 1, 1], [1, 1, 1, 1, 1]]","[14, 2, 1, 9, 4]",22,22,1,0.067,0.067,0.0,[],supersize,control,-1,False,5,5,5,1,2483,True,implicit-mouselab,26,627210,supersize,1
mouselab,False,[],"[[5, 5, 1, 5, 4], [3, 7, 7, 7, 9], [3, 4, 6, 5, 5], [4, 6, 4, 5, 4], [3, 7, 6, 4, 3]]","[[4, 4, 4, 4, 4], [4, 4, 4, 4, 4], [4, 4, 4, 4, 4], [4, 4, 4, 4, 4], [4, 4, 4, 4, 4]]","[10, 5, 3, 9, 3]",14,23,2,0.039,0.039,0.0,[],supersize,control,-1,False,5,5,5,4,9592,True,implicit-mouselab,27,657590,supersize,1
mouselab,False,[],"[[3, 10, 6, 4, 6], [4, 7, 6, 2, 4], [6, 6, 5, 3, 3], [7, 6, 7, 5, 7], [5, 7, 4, 5, 7]]","[[1, 1, 1, 1, 1], [1, 1, 1, 1, 1], [1, 1, 1, 1, 1], [1, 1, 1, 1, 1], [1, 1, 1, 1, 1]]","[9, 6, 3, 4, 8]",10,24,1,0.077,0.077,0.0,[],supersize,control,-1,False,5,5,5,1,2632,True,implicit-mouselab,28,662407,supersize,1
mouselab,False,[],"[[4, 8, 6, 6, 4, 6], [6, 6, 4, 7, 5, 6], [2, 5, 5, 7, 6, 7], [7, 4, 5, 8, 5, 3], [9, 4, 5, 8, 5, 7]]","[[4, 4, 4, 4, 4, 4], [4, 4, 4, 4, 4, 4], [4, 4, 4, 4, 4, 4], [4, 4, 4, 4, 4, 4], [4, 4, 4, 4, 4, 4]]","[1, 10, 5, 3, 11]",18,25,3,0.074,0.074,0.0,[],supersize,post-supersize,5,False,5,6,5,4,5102,True,implicit-mouselab,29,669130,supersize,1
mouselab,False,[],"[[9, 3, 6, 7, 7, 2], [4, 5, 7, 10, 6, 7], [8, 6, 5, 4, 6, 7], [5, 6, 5, 5, 3, 8], [5, 5, 8, 4, 3, 4]]","[[1, 1, 1, 1, 1, 1], [1, 1, 1, 1, 1, 1], [1, 1, 1, 1, 1, 1], [1, 1, 1, 1, 1, 1], [1, 1, 1, 1, 1, 1]]","[11, 9, 6, 3, 1]",16,26,0,0.068,0.068,0.0,[],supersize,post-supersize,5,False,5,6,5,1,4317,True,implicit-mouselab,30,675389,supersize,1
mouselab,False,[],"[[5, 5, 5, 5, 7, 5], [6, 5, 10, 7, 4, 4], [3, 6, 4, 6, 2, 3], [8, 5, 7, 7, 5, 2], [3, 6, 6, 4, 6, 5]]","[[1, 1, 1, 1, 1, 1], [1, 1, 1, 1, 1, 1], [1, 1, 1, 1, 1, 1], [1, 1, 1, 1, 1, 1], [1, 1, 1, 1, 1, 1]]","[7, 7, 3, 6, 7]",6,27,1,0.053,0.053,0.0,[],supersize,pre-supersize,2,False,5,6,5,1,8048,True,implicit-mouselab,31,685355,supersize,1
mouselab,False,[],"[[4, 7, 3, 4, 2], [4, 5, 6, 4, 5], [5, 5, 4, 3, 5], [7, 3, 6, 6, 8], [3, 8, 6, 5, 8]]","[[1, 1, 1, 1, 1], [1, 1, 1, 1, 1], [1, 1, 1, 1, 1], [1, 1, 1, 1, 1], [1, 1, 1, 1, 1]]","[7, 3, 13, 6, 1]",16,28,3,0.04,0.04,0.0,[],supersize,control,-1,False,5,5,5,1,4586,True,implicit-mouselab,32,691873,supersize,1
mouselab,False,[],"[[4, 5, 7, 3, 5], [2, 6, 3, 5, 6], [2, 3, 5, 8, 2], [4, 5, 5, 6, 4], [6, 5, 6, 6, 7]]","[[1, 1, 1, 1, 1], [1, 1, 1, 1, 1], [1, 1, 1, 1, 1], [1, 1, 1, 1, 1], [1, 1, 1, 1, 1]]","[4, 2, 2, 16, 6]",20,29,0,0.041,0.041,0.0,[],supersize,control,-1,False,5,5,5,1,3190,True,implicit-mouselab,33,697593,supersize,1
mouselab,False,[],"[[3, 3, 5, 5, 4, 8], [3, 4, 5, 5, 0, 5], [3, 3, 6, 3, 6, 4], [5, 6, 6, 5, 5, 5], [5, 3, 4, 6, 8, 5]]","[[1, 1, 1, 1, 1, 1], [1, 1, 1, 1, 1, 1], [1, 1, 1, 1, 1, 1], [1, 1, 1, 1, 1, 1], [1, 1, 1, 1, 1, 1]]","[7, 1, 9, 8, 5]",12,30,1,0.038,0.038,0.0,[],supersize,post-supersize,5,False,5,6,5,1,8620,True,implicit-mouselab,34,707701,supersize,1
mouselab,False,[],"[[7, 4, 4, 3, 5, 7], [6, 6, 3, 6, 5, 3], [1, 3, 5, 8, 6, 5], [6, 6, 5, 4, 3, 6], [5, 4, 4, 7, 6, 4]]","[[1, 1, 1, 1, 1, 1], [1, 1, 1, 1, 1, 1], [1, 1, 1, 1, 1, 1], [1, 1, 1, 1, 1, 1], [1, 1, 1, 1, 1, 1]]","[11, 5, 2, 8, 4]",14,31,0,0.059,0.059,0.0,[],supersize,pre-supersize,0,True,5,6,5,1,5888,True,implicit-mouselab,35,715718,supersize,1
mouselab,False,[],"[[6, 5, 8, 5, 3, 1], [7, 8, 5, 6, 5, 3], [6, 1, 5, 5, 2, 6], [4, 4, 5, 5, 7, 3], [7, 3, 5, 5, 5, 7]]","[[4, 4, 4, 4, 4, 4], [4, 4, 4, 4, 4, 4], [4, 4, 4, 4, 4, 4], [4, 4, 4, 4, 4, 4], [4, 4, 4, 4, 4, 4]]","[1, 14, 9, 3, 3]",22,32,3,0.055,0.055,0.0,[],supersize,pre-supersize,0,False,5,6,5,4,2867,True,implicit-mouselab,36,720393,supersize,1
mouselab,True,"[7, 15, 20]","[[7, 3, 3, 3, 6], [5, 1, 6, 4, 5], [5, 5, 8, 3, 3], [6, 7, 5, 3, 4], [5, 5, 6, 4, 4]]","[[1, 1, 1, 1, 1], [1, 0, 1, 1, 1], [1, 1, 1, 0, 1], [1, 1, 0, 1, 1], [1, 1, 1, 1, 1]]","[6, 2, 7, 14, 1]",18,1,2,0.054,0.053,0.001,"[7, 15, 20]",supersize,control,-1,False,5,5,5,1,10066,True,implicit-mouselab,4,203160,supersize,2
mouselab,True,"[12, 12, 12, 12]","[[6, 3, 5, 6, 1], [4, 6, 4, 4, 6], [8, 7, 5, 5, 4], [9, 6, 2, 8, 3], [3, 6, 1, 8, 4]]","[[4, 4, 4, 4, 4], [4, 4, 4, 4, 4], [0, 4, 4, 4, 4], [4, 4, 4, 4, 4], [4, 4, 4, 4, 4]]","[5, 4, 6, 12, 3]",12,2,0,0.07,0.06866666666666667,0.0013333333333333333,[12],supersize,control,-1,False,5,5,5,4,9792,True,implicit-mouselab,5,219249,supersize,2
mouselab,False,"[9, 9, 9, 9, 13, 13, 13, 13]","[[4, 3, 4, 6, 8, 6], [6, 6, 7, 3, 5, 4], [7, 7, 6, 7, 3, 6], [5, 7, 7, 5, 6, 5], [7, 2, 6, 6, 6, 8]]","[[4, 4, 4, 4, 4, 4], [4, 4, 4, 0, 4, 4], [4, 0, 4, 4, 4, 4], [4, 4, 4, 4, 4, 4], [4, 4, 4, 4, 4, 4]]","[6, 5, 3, 6, 10]",8,3,5,0.061,0.058333333333333334,0.0026666666666666666,"[9, 13]",supersize,post-supersize,5,True,5,6,5,4,17433,True,implicit-mouselab,7,241854,supersize,2
mouselab,False,"[19, 19, 19, 19]","[[6, 5, 5, 4, 5, 4], [5, 4, 6, 4, 6, 1], [7, 6, 3, 7, 7, 6], [6, 9, 6, 3, 7, 5], [6, 5, 7, 7, 8, 5]]","[[4, 4, 4, 4, 4, 4], [4, 4, 4, 4, 4, 4], [4, 4, 4, 4, 4, 4], [4, 0, 4, 4, 4, 4], [4, 4, 4, 4, 4, 4]]","[1, 13, 6, 2, 8]",18,4,1,0.05,0.04866666666666667,0.0013333333333333333,[19],supersize,pre-supersize,3,False,5,6,5,4,6682,True,implicit-mouselab,8,253156,supersize,2
mouselab,False,"[12, 14]","[[6, 5, 5, 4, 8, 4], [3, 4, 10, 6, 6, 2], [6, 6, 4, 2, 5, 3], [4, 6, 4, 6, 6, 4], [6, 6, 3, 8, 4, 5]]","[[1, 1, 1, 1, 1, 1], [1, 1, 1, 1, 1, 1], [0, 1, 0, 1, 1, 1], [1, 1, 1, 1, 1, 1], [1, 1, 1, 1, 1, 1]]","[7, 4, 12, 5, 2]",14,5,0,0.053,0.05233333333333333,0.0006666666666666666,"[12, 14]",supersize,post-supersize,5,False,5,6,5,1,13208,True,implicit-mouselab,9,271275,supersize,2
mouselab,False,"[6, 7, 8, 9, 10]","[[3, 2, 7, 4, 4, 3], [6, 4, 6, 6, 3, 7], [8, 3, 4, 5, 2, 4], [7, 3, 3, 6, 4, 4], [3, 4, 2, 4, 6, 3]]","[[1, 1, 1, 1, 1, 1], [0, 0, 0, 0, 0, 1], [1, 1, 1, 1, 1, 1], [1, 1, 1, 1, 1, 1], [1, 1, 1, 1, 1, 1]]","[1, 15, 6, 6, 2]",18,6,5,0.054,0.052333333333333336,0.0016666666666666668,"[6, 7, 8, 9, 10]",supersize,post-supersize,5,True,5,6,5,1,12905,True,implicit-mouselab,10,287216,supersize,2
mouselab,False,"[12, 14]","[[9, 4, 7, 5, 6], [4, 5, 7, 4, 6], [7, 5, 4, 7, 4], [7, 6, 6, 6, 4], [5, 4, 6, 4, 5]]","[[1, 1, 1, 1, 1], [1, 1, 1, 1, 1], [0, 1, 0, 1, 1], [1, 1, 1, 1, 1], [1, 1, 1, 1, 1]]","[2, 6, 11, 9, 2]",16,7,0,0.064,0.06333333333333334,0.0006666666666666666,"[12, 14]",supersize,control,-1,False,5,5,5,1,7032,True,implicit-mouselab,11,297570,supersize,2
mouselab,False,"[12, 13, 14, 15, 16]","[[6, 5, 5, 1, 5], [6, 8, 4, 3, 8], [4, 5, 6, 5, 5], [3, 5, 5, 4, 5], [4, 4, 6, 7, 3]]","[[1, 1, 1, 1, 1], [1, 1, 1, 1, 1], [0, 0, 0, 0, 0], [1, 1, 1, 1, 1], [1, 1, 1, 1, 1]]","[1, 4, 19, 4, 2]",26,8,2,0.056,0.05433333333333334,0.0016666666666666668,"[12, 13, 14, 15, 16]",supersize,control,-1,False,5,5,5,1,4614,True,implicit-mouselab,12,306021,supersize,2
mouselab,False,"[2, 9, 11, 10, 7, 6]","[[5, 5, 3, 5, 6, 5], [5, 5, 7, 4, 5, 5], [5, 6, 3, 5, 6, 6], [4, 1, 6, 3, 4, 4], [5, 5, 7, 8, 4, 5]]","[[1, 1, 0, 1, 1, 1], [0, 0, 1, 0, 0, 0], [1, 1, 1, 1, 1, 1], [1, 1, 1, 1, 1, 1], [1, 1, 1, 1, 1, 1]]","[10, 12, 4, 3, 1]",20,9,4,0.053,0.051,0.002,"[2, 9, 11, 10, 7, 6]",supersize,pre-supersize,2,False,5,6,5,1,13689,True,implicit-mouselab,13,321774,supersize,2
mouselab,False,"[19, 19, 19, 19, 21, 21, 21, 21]","[[6, 8, 5, 4, 4], [5, 6, 6, 5, 4], [5, 4, 7, 3, 3], [8, 3, 4, 8, 2], [6, 6, 5, 6, 5]]","[[4, 4, 4, 4, 4], [4, 4, 4, 4, 4], [4, 4, 4, 4, 4], [4, 0, 4, 0, 4], [4, 4, 4, 4, 4]]","[8, 3, 3, 14, 2]",20,10,3,0.06,0.05733333333333333,0.0026666666666666666,"[19, 21]",supersize,control,-1,False,5,5,5,4,6481,True,implicit-mouselab,14,330350,supersize,2
mouselab,False,"[14, 15]","[[6, 5, 3, 7, 6, 6], [6, 6, 4, 8, 6, 5], [6, 3, 5, 2, 8, 7], [6, 3, 4, 2, 4, 6], [6, 4, 7, 2, 1, 5]]","[[1, 1, 1, 1, 1, 1], [1, 1, 1, 1, 1, 1], [1, 1, 0, 0, 1, 1], [1, 1, 1, 1, 1, 1], [1, 1, 1, 1, 1, 1]]","[5, 3, 12, 9, 1]",18,11,1,0.037,0.03633333333333333,0.0006666666666666666,"[14, 15]",supersize,pre-supersize,1,True,5,6,5,1,6823,True,implicit-mouselab,15,343119,supersize,2
mouselab,False,"[18, 19, 20, 21, 22, 23]","[[6, 7, 4, 8, 4, 4], [5, 2, 5, 1, 6, 3], [5, 3, 5, 4, 5, 7], [3, 0, 4, 9, 3, 5], [6, 6, 3, 1, 4, 5]]","[[1, 1, 1, 1, 1, 1], [1, 1, 1, 1, 1, 1], [1, 1, 1, 1, 1, 1], [0, 0, 0, 0, 0, 0], [1, 1, 1, 1, 1, 1]]","[9, 4, 2, 11, 4]",16,12,3,0.062,0.06,0.002,"[18, 19, 20, 21, 22, 23]",supersize,pre-supersize,1,False,5,6,5,1,6766,True,implicit-mouselab,16,355469,supersize,2
mouselab,False,"[6, 6, 6, 6, 9, 9, 9, 9, 8, 8, 8, 8]","[[6, 6, 4, 7, 8], [4, 7, 5, 3, 4], [6, 5, 3, 2, 5], [4, 7, 6, 3, 6], [5, 3, 7, 7, 3]]","[[4, 4, 4, 4, 4], [0, 4, 0, 0, 4], [4, 4, 4, 4, 4], [4, 4, 4, 4, 4], [4, 4, 4, 4, 4]]","[6, 10, 6, 5, 3]",8,13,2,0.048,0.044,0.004,"[6, 9, 8]",supersize,control,-1,False,5,5,5,4,9499,True,implicit-mouselab,17,369026,supersize,2
mouselab,False,"[18, 19]","[[4, 6, 4, 7, 8], [6, 7, 4, 1, 4], [8, 5, 5, 5, 6], [7, 3, 1, 3, 1], [7, 6, 6, 3, 6]]","[[1, 1, 1, 1, 1], [1, 1, 1, 1, 1], [1, 1, 1, 1, 1], [0, 0, 1, 1, 1], [1, 1, 1, 1, 1]]","[7, 3, 7, 12, 1]",16,14,0,0.064,0.06333333333333334,0.0006666666666666666,"[18, 19]",supersize,control,-1,False,5,5,5,1,9086,True,implicit-mouselab,18,381067,supersize,2
mouselab,False,[],"[[5, 5, 5, 4, 4, 4], [5, 5, 3, 5, 6, 6], [6, 5, 1, 5, 1, 7], [3, 5, 8, 5, 4, 2], [4, 5, 5, 4, 3, 6]]","[[4, 4, 4, 4, 4, 4], [4, 4, 4, 4, 4, 4], [4, 4, 4, 4, 4, 4], [4, 4, 4, 4, 4, 4], [4, 4, 4, 4, 4, 4]]","[7, 2, 13, 2, 6]",16,15,0,0.051,0.051,0.0,[],supersize,pre-supersize,0,True,5,6,5,4,8300,True,implicit-mouselab,19,391097,supersize,2
mouselab,False,[3],"[[7, 7, 9, 5, 6, 4], [9, 4, 7, 4, 3, 6], [3, 6, 6, 4, 4, 6], [6, 5, 5, 6, 5, 3], [6, 4, 4, 4, 5, 7]]","[[1, 1, 1, 0, 1, 1], [1, 1, 1, 1, 1, 1], [1, 1, 1, 1, 1, 1], [1, 1, 1, 1, 1, 1], [1, 1, 1, 1, 1, 1]]","[8, 6, 2, 9, 5]",10,16,3,0.049,0.04866666666666667,0.0003333333333333333,[3],supersize,pre-supersize,3,True,5,6,5,1,7732,True,implicit-mouselab,20,400243,supersize,2
mouselab,False,"[24, 25]","[[4, 5, 4, 8, 4, 6], [6, 8, 7, 6, 6, 4], [3, 3, 6, 4, 4, 9], [1, 8, 4, 5, 5, 6], [8, 4, 5, 5, 3, 9]]","[[1, 1, 1, 1, 1, 1], [1, 1, 1, 1, 1, 1], [1, 1, 1, 1, 1, 1], [1, 1, 1, 1, 1, 1], [0, 0, 1, 1, 1, 1]]","[5, 1, 6, 2, 16]",20,17,0,0.058,0.05733333333333333,0.0006666666666666666,"[24, 25]",supersize,pre-supersize,2,False,5,6,5,1,5891,True,implicit-mouselab,21,407490,supersize,2
mouselab,False,"[0, 0, 0, 0, 2, 2, 2, 2, 4, 4, 4, 4, 3, 3, 3, 3]","[[3, 7, 3, 4, 3], [5, 2, 5, 3, 4], [3, 5, 5, 4, 4], [6, 8, 3, 3, 4], [6, 7, 8, 3, 4]]","[[0, 4, 0, 0, 0], [4, 4, 4, 4, 4], [4, 4, 4, 4, 4], [4, 4, 4, 4, 4], [4, 4, 4, 4, 4]]","[10, 6, 9, 4, 1]",14,18,3,0.036,0.030666666666666665,0.005333333333333333,"[0, 2, 4, 3]",supersize,control,-1,False,5,5,5,4,9493,True,implicit-mouselab,22,418558,supersize,2
mouselab,False,[],"[[6, 6, 5, 7, 6, 8], [6, 5, 2, 4, 6, 3], [7, 7, 5, 5, 7, 5], [4, 4, 7, 4, 6, 6], [4, 5, 1, 1, 8, 6]]","[[4, 4, 4, 4, 4, 4], [4, 4, 4, 4, 4, 4], [4, 4, 4, 4, 4, 4], [4, 4, 4, 4, 4, 4], [4, 4, 4, 4, 4, 4]]","[7, 7, 4, 5, 7]",6,19,5,0.056,0.056,0.0,[],supersize,post-supersize,5,True,5,6,5,4,6441,True,implicit-mouselab,23,427225,supersize,2
mouselab,False,"[28, 28, 28, 28]","[[8, 8, 5, 4, 5, 5], [7, 4, 4, 8, 3, 5], [5, 7, 4, 4, 8, 5], [5, 4, 10, 4, 4, 5], [5, 5, 4, 7, 8, 4]]","[[4, 4, 4, 4, 4, 4], [4, 4, 4, 4, 4, 4], [4, 4, 4, 4, 4, 4], [4, 4, 4, 4, 4, 4], [4, 4, 4, 4, 0, 4]]","[4, 10, 3, 3, 10]",16,20,4,0.055,0.05366666666666667,0.0013333333333333333,[28],supersize,post-supersize,5,False,5,6,5,4,9486,True,implicit-mouselab,24,438466,supersize,2
mouselab,False,"[8, 8, 8, 8]","[[4, 2, 6, 1, 9, 4], [7, 6, 4, 3, 5, 6], [5, 4, 5, 9, 6, 4], [4, 5, 6, 6, 4, 6], [9, 3, 7, 4, 3, 2]]","[[4, 4, 4, 4, 4, 4], [4, 4, 0, 4, 4, 4], [4, 4, 4, 4, 4, 4], [4, 4, 4, 4, 4, 4], [4, 4, 4, 4, 4, 4]]","[8, 10, 9, 2, 1]",18,21,3,0.045,0.043666666666666666,0.0013333333333333333,[8],supersize,pre-supersize,3,True,5,6,5,4,5904,True,implicit-mouselab,25,445693,supersize,2
mouselab,False,"[7, 7, 7, 7, 8, 8, 8, 8]","[[3, 5, 4, 5, 7], [5, 3, 9, 6, 5], [3, 4, 6, 4, 4], [6, 3, 8, 4, 7], [5, 4, 6, 6, 7]]","[[4, 4, 4, 4, 4], [4, 0, 0, 4, 4], [4, 4, 4, 4, 4], [4, 4, 4, 4, 4], [4, 4, 4, 4, 4]]","[2, 13, 7, 7, 1]",18,22,2,0.076,0.07333333333333333,0.0026666666666666666,"[7, 8]",supersize,control,-1,False,5,5,5,4,5021,True,implicit-mouselab,26,453360,supersize,2
mouselab,False,[6],"[[10, 5, 4, 6, 7], [9, 5, 5, 5, 7], [7, 6, 4, 5, 4], [4, 4, 4, 4, 5], [6, 7, 4, 4, 3]]","[[1, 1, 1, 1, 1], [0, 1, 1, 1, 1], [1, 1, 1, 1, 1], [1, 1, 1, 1, 1], [1, 1, 1, 1, 1]]","[6, 10, 3, 2, 9]",14,23,0,0.078,0.07766666666666666,0.0003333333333333333,[6],supersize,control,-1,False,5,5,5,1,4760,True,implicit-mouselab,27,459688,supersize,2
mouselab,False,"[6, 6, 6, 6, 7, 7, 7, 7, 8, 8, 8, 8, 9, 9, 9, 9, 10, 10, 10, 10]","[[7, 8, 5, 4, 3], [1, 5, 5, 5, 8], [4, 8, 5, 3, 3], [9, 7, 10, 7, 3], [7, 2, 4, 1, 9]]","[[4, 4, 4, 4, 4], [0, 0, 0, 0, 0], [4, 4, 4, 4, 4], [4, 4, 4, 4, 4], [4, 4, 4, 4, 4]]","[8, 15, 1, 4, 2]",22,24,4,0.059,0.05233333333333333,0.006666666666666667,"[6, 7, 8, 9, 10]",supersize,control,-1,False,5,5,5,4,7543,True,implicit-mouselab,28,468619,supersize,2
mouselab,False,"[6, 6, 6, 6]","[[4, 5, 3, 2, 2, 3], [6, 7, 6, 5, 5, 3], [10, 7, 5, 6, 4, 4], [2, 4, 5, 7, 5, 6], [3, 5, 7, 4, 5, 7]]","[[4, 4, 4, 4, 4, 4], [0, 4, 4, 4, 4, 4], [4, 4, 4, 4, 4, 4], [4, 4, 4, 4, 4, 4], [4, 4, 4, 4, 4, 4]]","[3, 12, 5, 1, 9]",18,25,5,0.045,0.043666666666666666,0.0013333333333333333,[6],supersize,post-supersize,5,True,5,6,5,4,7713,True,implicit-mouselab,29,477803,supersize,2
mouselab,False,"[12, 12, 12, 12, 24, 24, 24, 24]","[[5, 6, 8, 6, 7, 4], [2, 5, 9, 1, 6, 4], [4, 4, 3, 6, 6, 8], [2, 5, 6, 7, 7, 4], [4, 2, 5, 5, 5, 6]]","[[4, 4, 4, 4, 4, 4], [4, 4, 4, 4, 4, 4], [0, 4, 4, 4, 4, 4], [4, 4, 4, 4, 4, 4], [0, 4, 4, 4, 4, 4]]","[1, 4, 9, 4, 12]",18,26,5,0.06,0.05733333333333333,0.0026666666666666666,"[12, 24]",supersize,post-supersize,5,True,5,6,5,4,8591,True,implicit-mouselab,30,487849,supersize,2
mouselab,False,"[7, 7, 7, 7]","[[4, 4, 5, 3, 4, 5], [1, 6, 4, 4, 5, 7], [2, 4, 6, 5, 7, 7], [5, 6, 6, 5, 5, 5], [7, 8, 7, 2, 4, 3]]","[[4, 4, 4, 4, 4, 4], [4, 0, 4, 4, 4, 4], [4, 4, 4, 4, 4, 4], [4, 4, 4, 4, 4, 4], [4, 4, 4, 4, 4, 4]]","[3, 12, 5, 9, 1]",18,27,1,0.055,0.05366666666666667,0.0013333333333333333,[7],supersize,pre-supersize,0,False,5,6,5,4,4621,True,implicit-mouselab,31,494265,supersize,2
mouselab,False,"[12, 13, 14, 15, 16]","[[4, 5, 4, 7, 7, 4], [6, 5, 4, 6, 1, 2], [8, 5, 3, 5, 7, 5], [5, 3, 4, 5, 3, 6], [8, 1, 6, 4, 7, 5]]","[[1, 1, 1, 1, 1, 1], [1, 1, 1, 1, 1, 1], [0, 0, 0, 0, 0, 1], [1, 1, 1, 1, 1, 1], [1, 1, 1, 1, 1, 1]]","[5, 5, 13, 5, 2]",14,28,0,0.065,0.06333333333333334,0.0016666666666666668,"[12, 13, 14, 15, 16]",supersize,post-supersize,5,False,5,6,5,1,6455,True,implicit-mouselab,32,503360,supersize,2
mouselab,False,"[24, 25, 26, 27, 28, 18]","[[4, 3, 3, 3, 7], [3, 5, 3, 4, 7], [6, 4, 5, 7, 8], [5, 7, 4, 8, 5], [6, 2, 6, 4, 6]]","[[1, 1, 1, 1, 1], [1, 1, 1, 1, 1], [1, 1, 1, 1, 1], [0, 1, 1, 1, 1], [0, 0, 0, 0, 0]]","[1, 1, 5, 11, 12]",22,29,0,0.055,0.053,0.002,"[24, 25, 26, 27, 28, 18]",supersize,control,-1,False,5,5,5,1,7098,True,implicit-mouselab,33,511473,supersize,2
mouselab,False,"[18, 19, 20, 21, 22, 23]","[[6, 9, 7, 5, 8, 5], [4, 3, 2, 5, 7, 6], [6, 4, 5, 5, 5, 5], [5, 3, 4, 4, 4, 4], [6, 5, 5, 3, 5, 3]]","[[1, 1, 1, 1, 1, 1], [1, 1, 1, 1, 1, 1], [1, 1, 1, 1, 1, 1], [0, 0, 0, 0, 0, 0], [1, 1, 1, 1, 1, 1]]","[3, 4, 2, 17, 4]",22,30,0,0.052,0.049999999999999996,0.002,"[18, 19, 20, 21, 22, 23]",supersize,post-supersize,5,False,5,6,5,1,7861,True,implicit-mouselab,34,520998,supersize,2
mouselab,False,[],"[[5, 3, 0, 5, 7, 2], [5, 2, 7, 5, 5, 10], [6, 6, 6, 5, 2, 5], [5, 6, 2, 7, 3, 5], [6, 6, 3, 7, 4, 6]]","[[4, 4, 4, 4, 4, 4], [4, 4, 4, 4, 4, 4], [4, 4, 4, 4, 4, 4], [4, 4, 4, 4, 4, 4], [4, 4, 4, 4, 4, 4]]","[1, 2, 11, 11, 5]",20,31,0,0.055,0.055,0.0,[],supersize,pre-supersize,0,True,5,6,5,4,2627,True,implicit-mouselab,35,525314,supersize,2
mouselab,False,"[24, 25, 26, 27, 28, 29]","[[6, 5, 5, 5, 6, 7], [6, 7, 8, 8, 7, 5], [6, 4, 3, 5, 5, 8], [8, 7, 6, 2, 5, 6], [2, 4, 6, 2, 6, 4]]","[[1, 1, 1, 1, 1, 1], [1, 1, 1, 1, 1, 1], [1, 1, 1, 1, 1, 1], [1, 1, 1, 1, 1, 1], [0, 0, 0, 0, 0, 0]]","[5, 8, 1, 7, 9]",12,32,2,0.063,0.061,0.002,"[24, 25, 26, 27, 28, 29]",supersize,post-supersize,5,False,5,6,5,1,8857,True,implicit-mouselab,36,535129,supersize,2
mouselab,True,"[3, 26, 8, 1, 2, 9, 27, 25]","[[5, 4, 1, 4, 6], [5, 4, 3, 4, 3], [5, 8, 6, 5, 5], [4, 4, 5, 6, 2], [7, 2, 6, 4, 4]]","[[1, 0, 0, 0, 1], [1, 1, 0, 0, 1], [1, 1, 1, 1, 1], [1, 1, 1, 1, 1], [1, 0, 0, 0, 1]]","[8, 7, 4, 3, 8]",10,1,0,0.054,0.051333333333333335,0.0026666666666666666,"[3, 26, 8, 1, 2, 9, 27, 25]",supersize,control,-1,False,5,5,5,1,34847,True,implicit-mouselab,4,234630,supersize,3
mouselab,True,"[14, 14, 14, 14, 16, 16, 16, 16, 12, 12, 12, 12, 13, 13, 13, 13, 25, 25, 25, 25]","[[3, 2, 4, 6, 3], [5, 6, 4, 6, 7], [4, 8, 0, 5, 3], [6, 6, 3, 6, 4], [9, 5, 4, 7, 3]]","[[4, 4, 4, 4, 4], [4, 4, 4, 4, 4], [0, 0, 0, 4, 0], [4, 4, 4, 4, 4], [4, 0, 4, 4, 4]]","[5, 2, 14, 2, 7]",18,2,1,0.06,0.05333333333333333,0.006666666666666667,"[14, 16, 12, 13, 25]",supersize,control,-1,False,5,5,5,4,20998,True,implicit-mouselab,5,260261,supersize,3
mouselab,False,"[24, 24, 24, 24]","[[8, 6, 4, 3, 7, 6], [1, 6, 3, 6, 6, 5], [6, 6, 6, 4, 2, 4], [6, 6, 7, 7, 6, 6], [6, 4, 4, 1, 4, 3]]","[[4, 4, 4, 4, 4, 4], [4, 4, 4, 4, 4, 4], [4, 4, 4, 4, 4, 4], [4, 4, 4, 4, 4, 4], [0, 4, 4, 4, 4, 4]]","[12, 3, 2, 4, 9]",18,3,0,0.063,0.06166666666666667,0.0013333333333333333,[24],supersize,pre-supersize,0,True,5,6,5,4,6271,True,implicit-mouselab,7,270382,supersize,3
mouselab,False,"[25, 25, 25, 25, 28, 28, 28, 28, 27, 27, 27, 27, 24, 24, 24, 24]","[[5, 5, 6, 5, 4, 3], [5, 5, 7, 5, 5, 5], [5, 4, 6, 4, 4, 6], [7, 5, 3, 5, 7, 5], [6, 3, 4, 3, 6, 7]]","[[4, 4, 4, 4, 4, 4], [4, 4, 4, 4, 4, 4], [4, 4, 4, 4, 4, 4], [4, 4, 4, 4, 4, 4], [0, 0, 4, 0, 0, 4]]","[4, 1, 6, 5, 14]",16,4,5,0.059,0.05366666666666666,0.005333333333333333,"[25, 28, 27, 24]",supersize,post-supersize,5,True,5,6,5,4,19078,True,implicit-mouselab,8,291629,supersize,3
mouselab,False,"[6, 18, 8, 7, 19, 10, 9, 21, 11]","[[5, 7, 6, 3, 7, 3], [5, 7, 2, 7, 5, 5], [4, 8, 2, 5, 5, 7], [5, 4, 4, 5, 4, 5], [5, 7, 7, 4, 7, 5]]","[[1, 1, 1, 1, 1, 1], [0, 0, 0, 0, 0, 0], [1, 1, 1, 1, 1, 1], [0, 0, 1, 0, 1, 1], [1, 1, 1, 1, 1, 1]]","[3, 12, 5, 9, 1]",18,5,3,0.056,0.053,0.003,"[6, 18, 8, 7, 19, 10, 9, 21, 11]",supersize,pre-supersize,0,False,5,6,5,1,23712,True,implicit-mouselab,9,317157,supersize,3
mouselab,False,"[6, 6, 6, 6, 9, 9, 9, 9]","[[6, 6, 6, 4, 6], [4, 4, 3, 7, 3], [6, 4, 7, 4, 4], [6, 4, 4, 4, 6], [7, 5, 9, 5, 2]]","[[4, 4, 4, 4, 4], [0, 4, 4, 0, 4], [4, 4, 4, 4, 4], [4, 4, 4, 4, 4], [4, 4, 4, 4, 4]]","[8, 11, 5, 4, 2]",14,6,3,0.052,0.04933333333333333,0.0026666666666666666,"[6, 9]",supersize,control,-1,False,5,5,5,4,8295,True,implicit-mouselab,10,328046,supersize,3
mouselab,False,"[19, 19, 19, 19, 18, 18, 18, 18, 21, 21, 21, 21, 3, 3, 3, 3]","[[6, 6, 7, 3, 2, 6], [9, 6, 3, 4, 5, 5], [5, 7, 3, 6, 5, 6], [3, 4, 2, 5, 6, 5], [7, 4, 4, 4, 6, 5]]","[[4, 4, 4, 0, 4, 4], [4, 4, 4, 4, 4, 4], [4, 4, 4, 4, 4, 4], [0, 0, 4, 0, 4, 4], [4, 4, 4, 4, 4, 4]]","[9, 2, 7, 11, 1]",18,7,5,0.055,0.049666666666666665,0.005333333333333333,"[19, 18, 21, 3]",supersize,post-supersize,5,True,5,6,5,4,15422,True,implicit-mouselab,11,347277,supersize,3
mouselab,False,"[11, 11, 11, 11, 9, 9, 9, 9, 8, 8, 8, 8]","[[5, 8, 5, 6, 5, 5], [6, 8, 6, 5, 5, 3], [5, 4, 6, 5, 5, 4], [6, 3, 7, 3, 7, 5], [7, 5, 5, 3, 3, 5]]","[[4, 4, 4, 4, 4, 4], [4, 4, 0, 0, 4, 0], [4, 4, 4, 4, 4, 4], [4, 4, 4, 4, 4, 4], [4, 4, 4, 4, 4, 4]]","[7, 10, 2, 3, 8]",14,8,2,0.056,0.052000000000000005,0.004,"[11, 9, 8]",supersize,pre-supersize,5,False,5,6,5,4,10879,True,implicit-mouselab,12,359445,supersize,3
mouselab,False,"[14, 14, 14, 14, 10, 10, 10, 10, 6, 6, 6, 6]","[[7, 8, 3, 5, 5, 5], [4, 4, 6, 3, 2, 6], [5, 8, 4, 5, 5, 4], [5, 4, 5, 7, 6, 6], [5, 6, 2, 1, 6, 6]]","[[4, 4, 4, 4, 4, 4], [0, 4, 4, 4, 0, 4], [4, 4, 0, 4, 4, 4], [4, 4, 4, 4, 4, 4], [4, 4, 4, 4, 4, 4]]","[1, 13, 12, 2, 2]",26,9,2,0.048,0.044,0.004,"[14, 10, 6]",supersize,pre-supersize,2,True,5,6,5,4,9959,True,implicit-mouselab,13,370877,supersize,3
mouselab,False,"[0, 1, 18, 24, 3, 2, 20, 21]","[[5, 3, 3, 4, 6], [3, 5, 5, 4, 2], [7, 4, 3, 6, 5], [6, 3, 4, 8, 5], [5, 4, 2, 6, 5]]","[[0, 0, 0, 0, 1], [1, 1, 1, 1, 1], [1, 1, 1, 1, 1], [0, 1, 0, 0, 1], [0, 1, 1, 1, 1]]","[9, 2, 3, 9, 7]",14,10,3,0.059,0.05633333333333333,0.0026666666666666666,"[0, 1, 18, 24, 3, 2, 20, 21]",supersize,control,-1,False,5,5,5,1,22223,True,implicit-mouselab,14,394829,supersize,3
mouselab,False,"[18, 18, 18, 18, 20, 20, 20, 20, 22, 22, 22, 22]","[[5, 5, 3, 1, 7], [3, 3, 6, 6, 7], [4, 6, 2, 5, 6], [5, 2, 4, 7, 6], [6, 5, 6, 5, 3]]","[[4, 4, 4, 4, 4], [4, 4, 4, 4, 4], [4, 4, 4, 4, 4], [0, 4, 0, 4, 0], [4, 4, 4, 4, 4]]","[5, 6, 6, 8, 5]",4,11,4,0.059,0.05499999999999999,0.004,"[18, 20, 22]",supersize,control,-1,False,5,5,5,4,8830,True,implicit-mouselab,15,405085,supersize,3
mouselab,False,"[25, 25, 25, 25, 13, 13, 13, 13, 16, 16, 16, 16]","[[6, 3, 6, 5, 4, 7], [2, 6, 4, 4, 3, 4], [5, 2, 6, 4, 5, 6], [5, 5, 6, 4, 5, 4], [5, 6, 6, 7, 6, 6]]","[[4, 4, 4, 4, 4, 4], [4, 4, 4, 4, 4, 4], [4, 0, 4, 4, 0, 4], [4, 4, 4, 4, 4, 4], [4, 0, 4, 4, 4, 4]]","[5, 2, 5, 3, 15]",18,12,4,0.052,0.048,0.004,"[25, 13, 16]",supersize,pre-supersize,4,True,5,6,5,4,10943,True,implicit-mouselab,16,417580,supersize,3
mouselab,False,"[12, 12, 12, 12, 0, 0, 0, 0]","[[9, 3, 3, 6, 5, 8], [6, 3, 2, 7, 4, 4], [5, 6, 6, 6, 3, 5], [5, 5, 4, 5, 8, 7], [5, 3, 5, 2, 7, 6]]","[[0, 4, 4, 4, 4, 4], [4, 4, 4, 4, 4, 4], [0, 4, 4, 4, 4, 4], [4, 4, 4, 4, 4, 4], [4, 4, 4, 4, 4, 4]]","[8, 3, 8, 7, 4]",10,13,0,0.062,0.059333333333333335,0.0026666666666666666,"[12, 0]",supersize,post-supersize,5,False,5,6,5,4,8688,True,implicit-mouselab,17,427733,supersize,3
mouselab,False,"[13, 13, 13, 13, 16, 16, 16, 16]","[[4, 8, 5, 2, 5], [8, 3, 6, 5, 4], [3, 4, 6, 6, 10], [3, 5, 3, 4, 6], [7, 6, 3, 5, 3]]","[[4, 4, 4, 4, 4], [4, 4, 4, 4, 4], [4, 0, 4, 4, 0], [4, 4, 4, 4, 4], [4, 4, 4, 4, 4]]","[3, 7, 12, 4, 4]",14,14,4,0.066,0.06333333333333334,0.0026666666666666666,"[13, 16]",supersize,control,-1,False,5,5,5,4,6382,True,implicit-mouselab,18,439181,supersize,3
mouselab,False,"[21, 21, 19, 18, 7, 20, 8, 9, 23]","[[3, 2, 4, 3, 3, 6], [5, 3, 9, 5, 7, 6], [2, 7, 7, 6, 7, 6], [3, 5, 5, 5, 8, 2], [4, 5, 4, 4, 4, 6]]","[[1, 1, 1, 1, 1, 1], [1, 0, 0, 0, 1, 1], [1, 1, 1, 1, 1, 1], [0, 0, 0, 0, 1, 0], [1, 1, 1, 1, 1, 1]]","[3, 7, 4, 12, 4]",14,15,2,0.06,0.05733333333333333,0.0026666666666666666,"[21, 19, 18, 7, 20, 8, 9, 23]",supersize,post-supersize,5,False,5,6,5,1,17655,True,implicit-mouselab,19,457925,supersize,3
mouselab,False,"[6, 8, 10, 16, 9, 15]","[[7, 6, 1, 3, 3], [3, 4, 2, 6, 4], [4, 7, 6, 5, 4], [8, 5, 7, 5, 6], [5, 5, 3, 7, 6]]","[[1, 1, 1, 1, 1], [0, 1, 0, 0, 0], [1, 1, 1, 0, 0], [1, 1, 1, 1, 1], [1, 1, 1, 1, 1]]","[2, 14, 6, 5, 3]",16,16,3,0.055,0.053,0.002,"[6, 8, 10, 16, 9, 15]",supersize,control,-1,False,5,5,5,1,10415,True,implicit-mouselab,20,469653,supersize,3
mouselab,False,"[14, 14, 14, 14, 16, 16, 16, 16]","[[5, 6, 4, 4, 6], [6, 5, 3, 6, 3], [0, 6, 3, 3, 7], [6, 4, 2, 5, 4], [6, 4, 1, 3, 5]]","[[4, 4, 4, 4, 4], [4, 4, 4, 4, 4], [4, 4, 0, 4, 0], [4, 4, 4, 4, 4], [4, 4, 4, 4, 4]]","[5, 1, 10, 6, 8]",12,17,4,0.056,0.05333333333333334,0.0026666666666666666,"[14, 16]",supersize,control,-1,False,5,5,5,4,7943,True,implicit-mouselab,21,484149,supersize,3
mouselab,False,"[10, 2, 0, 3, 1, 5, 11, 17, 16]","[[4, 4, 4, 3, 7, 6], [3, 6, 4, 3, 5, 6], [5, 7, 5, 6, 5, 9], [6, 2, 6, 7, 4, 6], [7, 4, 7, 4, 4, 5]]","[[0, 0, 0, 0, 1, 0], [1, 1, 1, 1, 0, 0], [1, 1, 1, 1, 0, 0], [1, 1, 1, 1, 1, 1], [1, 1, 1, 1, 1, 1]]","[14, 9, 4, 1, 2]",22,18,5,0.063,0.06,0.003,"[10, 2, 0, 3, 1, 5, 11, 17, 16]",supersize,pre-supersize,4,False,5,6,5,1,16822,True,implicit-mouselab,22,502397,supersize,3
mouselab,False,"[13, 13, 13, 13, 15, 15, 15, 15, 27, 27, 27, 27, 25, 25, 25, 25]","[[6, 4, 5, 6, 6, 6], [6, 5, 6, 4, 6, 8], [4, 5, 4, 5, 2, 4], [4, 6, 4, 5, 6, 5], [4, 7, 8, 4, 3, 7]]","[[4, 4, 4, 4, 4, 4], [4, 4, 4, 4, 4, 4], [4, 0, 4, 0, 4, 4], [4, 4, 4, 4, 4, 4], [4, 0, 4, 0, 4, 4]]","[3, 5, 10, 5, 7]",10,19,1,0.055,0.049666666666666665,0.005333333333333333,"[13, 15, 27, 25]",supersize,post-supersize,5,False,5,6,5,4,12374,True,implicit-mouselab,23,515990,supersize,3
mouselab,False,"[12, 15, 16, 4, 3, 14, 2, 13, 1]","[[4, 6, 5, 5, 4], [7, 5, 6, 5, 1], [4, 5, 7, 5, 7], [5, 4, 6, 7, 4], [3, 3, 6, 3, 5]]","[[1, 0, 0, 0, 0], [1, 1, 1, 1, 1], [0, 0, 0, 0, 0], [1, 1, 1, 1, 1], [1, 1, 1, 1, 1]]","[11, 2, 15, 1, 1]",28,20,2,0.061,0.057999999999999996,0.003,"[12, 15, 16, 4, 3, 14, 2, 13, 1]",supersize,control,-1,False,5,5,5,1,19773,True,implicit-mouselab,24,536901,supersize,3
mouselab,False,"[26, 14, 25, 13]","[[4, 6, 5, 4, 5, 5], [6, 3, 8, 4, 6, 3], [8, 6, 4, 7, 4, 7], [7, 8, 9, 2, 5, 7], [4, 6, 5, 7, 1, 4]]","[[1, 1, 1, 1, 1, 1], [1, 1, 1, 1, 1, 1], [1, 0, 0, 1, 1, 1], [1, 1, 1, 1, 1, 1], [1, 0, 0, 1, 1, 1]]","[3, 2, 13, 2, 10]",22,21,1,0.059,0.057666666666666665,0.0013333333333333333,"[26, 14, 25, 13]",supersize,pre-supersize,2,False,5,6,5,1,12752,True,implicit-mouselab,25,551677,supersize,3
mouselab,False,"[6, 6, 6, 6, 8, 8, 8, 8, 10, 10, 10, 10, 11, 11, 11, 11, 14, 14, 14, 14]","[[8, 7, 4, 8, 3, 5], [3, 4, 4, 4, 2, 4], [10, 7, 5, 6, 5, 6], [3, 2, 7, 7, 5, 4], [5, 4, 8, 3, 6, 8]]","[[4, 4, 4, 4, 4, 4], [0, 4, 0, 4, 0, 0], [4, 4, 0, 4, 4, 4], [4, 4, 4, 4, 4, 4], [4, 4, 4, 4, 4, 4]]","[4, 15, 6, 3, 2]",18,22,2,0.048,0.04133333333333333,0.006666666666666667,"[6, 8, 10, 11, 14]",supersize,pre-supersize,0,False,5,6,5,4,37663,True,implicit-mouselab,26,590581,supersize,3
mouselab,False,"[6, 10, 9, 8, 7, 13, 16, 14, 19, 22, 28, 25]","[[3, 6, 3, 6, 3], [4, 5, 5, 4, 5], [5, 5, 4, 6, 5], [5, 5, 4, 7, 5], [5, 3, 3, 5, 5]]","[[1, 1, 1, 1, 1], [0, 0, 0, 0, 0], [1, 0, 0, 1, 0], [1, 0, 1, 1, 0], [1, 0, 1, 1, 0]]","[2, 19, 3, 4, 2]",26,23,4,0.049,0.045,0.004,"[6, 10, 9, 8, 7, 13, 16, 14, 19, 22, 28, 25]",supersize,control,-1,False,5,5,5,1,22015,True,implicit-mouselab,27,613854,supersize,3
mouselab,False,"[18, 20, 22, 16, 12, 21, 19, 13]","[[4, 6, 4, 6, 6, 6], [5, 5, 10, 2, 4, 4], [3, 5, 4, 7, 6, 5], [6, 7, 5, 4, 7, 2], [5, 6, 9, 6, 5, 3]]","[[1, 1, 1, 1, 1, 1], [1, 1, 1, 1, 1, 1], [0, 0, 1, 1, 0, 1], [0, 0, 0, 0, 0, 1], [1, 1, 1, 1, 1, 1]]","[2, 3, 9, 14, 2]",22,24,4,0.062,0.059333333333333335,0.0026666666666666666,"[18, 20, 22, 16, 12, 21, 19, 13]",supersize,post-supersize,5,False,5,6,5,1,13534,True,implicit-mouselab,28,628949,supersize,3
mouselab,False,"[12, 14, 16, 26, 28]","[[6, 7, 7, 8, 6, 7], [1, 5, 5, 4, 8, 3], [3, 5, 7, 6, 7, 7], [3, 8, 5, 8, 4, 4], [6, 4, 1, 6, 8, 5]]","[[1, 1, 1, 1, 1, 1], [1, 1, 1, 1, 1, 1], [0, 1, 0, 1, 0, 1], [1, 1, 1, 1, 1, 1], [1, 1, 0, 1, 0, 1]]","[3, 3, 12, 3, 9]",18,25,4,0.07,0.06833333333333334,0.0016666666666666668,"[12, 14, 16, 26, 28]",supersize,post-supersize,5,False,5,6,5,1,9279,True,implicit-mouselab,29,639821,supersize,3
mouselab,False,"[12, 12, 12, 12, 14, 14, 14, 14, 16, 16, 16, 16]","[[4, 7, 7, 6, 6], [6, 2, 8, 5, 6], [3, 5, 4, 6, 7], [7, 6, 4, 6, 3], [4, 4, 6, 8, 5]]","[[4, 4, 4, 4, 4], [4, 4, 4, 4, 4], [0, 4, 0, 4, 0], [4, 4, 4, 4, 4], [4, 4, 4, 4, 4]]","[6, 3, 11, 3, 7]",12,26,4,0.058,0.054000000000000006,0.004,"[12, 14, 16]",supersize,control,-1,False,5,5,5,4,6951,True,implicit-mouselab,30,647893,supersize,3
mouselab,False,"[0, 0, 0, 2, 4, 1, 12, 16, 3, 18, 22]","[[4, 1, 3, 3, 4, 6], [5, 1, 7, 6, 6, 3], [6, 4, 2, 7, 4, 5], [4, 4, 7, 8, 8, 3], [7, 5, 5, 4, 7, 3]]","[[0, 0, 0, 0, 0, 1], [1, 1, 1, 1, 1, 1], [0, 1, 1, 1, 0, 1], [0, 1, 1, 1, 0, 1], [1, 1, 1, 1, 1, 1]]","[9, 5, 8, 7, 1]",12,27,5,0.044,0.040999999999999995,0.003,"[0, 2, 4, 1, 12, 16, 3, 18, 22]",supersize,post-supersize,5,True,5,6,5,1,21566,True,implicit-mouselab,31,670780,supersize,3
mouselab,False,"[24, 24, 24, 24, 28, 28, 28, 28, 26, 26, 26, 26]","[[3, 5, 7, 7, 4, 1], [6, 6, 5, 5, 2, 6], [6, 5, 5, 6, 5, 6], [5, 7, 6, 5, 4, 9], [2, 4, 4, 4, 5, 6]]","[[4, 4, 4, 4, 4, 4], [4, 4, 4, 4, 4, 4], [4, 4, 4, 4, 4, 4], [4, 4, 4, 4, 4, 4], [0, 4, 0, 4, 0, 4]]","[1, 6, 5, 7, 11]",12,28,5,0.065,0.061,0.004,"[24, 28, 26]",supersize,post-supersize,5,True,5,6,5,4,10087,True,implicit-mouselab,32,683013,supersize,3
mouselab,False,"[19, 18, 13, 20, 22, 23, 21, 16, 15]","[[5, 7, 7, 6, 5, 7], [6, 4, 2, 3, 5, 6], [3, 4, 3, 6, 7, 4], [5, 5, 4, 5, 5, 2], [3, 7, 5, 6, 4, 6]]","[[1, 1, 1, 1, 1, 1], [1, 1, 1, 1, 1, 1], [1, 0, 1, 0, 0, 1], [0, 0, 0, 0, 0, 0], [1, 1, 1, 1, 1, 1]]","[1, 3, 9, 16, 1]",26,29,4,0.056,0.053,0.003,"[19, 18, 13, 20, 22, 23, 21, 16, 15]",supersize,pre-supersize,0,False,5,6,5,1,16470,True,implicit-mouselab,33,700789,supersize,3
mouselab,False,"[12, 14, 13]","[[3, 6, 4, 6, 7], [4, 6, 5, 6, 5], [10, 3, 4, 4, 5], [4, 2, 8, 7, 6], [3, 3, 8, 6, 5]]","[[1, 1, 1, 1, 1], [1, 1, 1, 1, 1], [0, 0, 0, 1, 1], [1, 1, 1, 1, 1], [1, 1, 1, 1, 1]]","[5, 5, 14, 1, 5]",16,30,0,0.065,0.064,0.001,"[12, 14, 13]",supersize,control,-1,False,5,5,5,1,6118,True,implicit-mouselab,34,708052,supersize,3
mouselab,False,"[24, 28, 27, 26, 25, 20, 19, 1, 2]","[[5, 8, 3, 5, 6, 3], [5, 5, 8, 5, 7, 2], [7, 4, 4, 4, 5, 4], [4, 6, 5, 5, 6, 5], [2, 5, 5, 3, 4, 5]]","[[1, 0, 0, 1, 1, 1], [1, 1, 1, 1, 1, 1], [1, 1, 1, 1, 1, 1], [1, 0, 0, 1, 1, 1], [0, 0, 0, 0, 0, 1]]","[6, 4, 2, 7, 11]",12,31,1,0.058,0.055,0.003,"[24, 28, 27, 26, 25, 20, 19, 1, 2]",supersize,post-supersize,5,False,5,6,5,1,12737,True,implicit-mouselab,35,723245,supersize,3
mouselab,False,"[6, 11, 29, 9, 10, 8, 7, 1, 25]","[[4, 7, 5, 3, 2, 7], [4, 8, 2, 5, 4, 6], [7, 5, 7, 4, 6, 6], [7, 4, 7, 8, 7, 3], [5, 1, 4, 6, 1, 2]]","[[1, 0, 1, 1, 1, 1], [0, 0, 0, 0, 0, 0], [1, 1, 1, 1, 1, 1], [1, 1, 1, 1, 1, 1], [1, 0, 1, 1, 1, 0]]","[2, 13, 5, 1, 9]",20,32,1,0.052,0.048999999999999995,0.003,"[6, 11, 29, 9, 10, 8, 7, 1, 25]",supersize,pre-supersize,5,False,5,6,5,1,14535,True,implicit-mouselab,36,738957,supersize,3
mouselab,True,"[12, 14, 16]","[[5, 5, 2, 7, 4], [5, 3, 9, 9, 2], [7, 6, 9, 4, 9], [7, 3, 2, 2, 4], [6, 8, 4, 5, 6]]","[[1, 1, 1, 1, 1], [1, 1, 1, 1, 1], [0, 1, 0, 1, 0], [1, 1, 1, 1, 1], [1, 1, 1, 1, 1]]","[9, 1, 8, 5, 7]",12,1,2,0.046,0.045,0.001,"[12, 14, 16]",supersize,control,-1,False,5,5,5,1,10262,True,implicit-mouselab,4,139208,supersize,4
mouselab,True,"[19, 20, 21]","[[8, 5, 8, 4, 5], [8, 2, 5, 7, 6], [3, 3, 5, 6, 7], [5, 5, 5, 1, 6], [6, 2, 4, 8, 6]]","[[4, 4, 4, 4, 4], [4, 4, 4, 4, 4], [4, 4, 4, 4, 4], [4, 3, 3, 3, 4], [4, 4, 4, 4, 4]]","[1, 4, 9, 10, 6]",14,2,1,0.034,0.033,0.001,[],supersize,control,-1,False,5,5,5,4,9204,True,implicit-mouselab,5,152445,supersize,4
mouselab,False,"[25, 26, 27]","[[5, 3, 5, 3, 7], [4, 3, 7, 5, 4], [4, 4, 2, 8, 5], [2, 7, 4, 6, 7], [1, 6, 5, 4, 5]]","[[1, 1, 1, 1, 1], [1, 1, 1, 1, 1], [1, 1, 1, 1, 1], [1, 1, 1, 1, 1], [1, 0, 0, 0, 1]]","[5, 2, 3, 8, 12]",16,3,1,0.054,0.053,0.001,"[25, 26, 27]",supersize,control,-1,False,5,5,5,1,7151,True,implicit-mouselab,7,163736,supersize,4
mouselab,False,[25],"[[3, 7, 5, 4, 3, 3], [5, 9, 4, 3, 4, 5], [7, 7, 4, 6, 6, 9], [4, 5, 7, 3, 4, 5], [5, 3, 3, 4, 7, 7]]","[[4, 4, 4, 4, 4, 4], [4, 4, 4, 4, 4, 4], [4, 4, 4, 4, 4, 4], [4, 4, 4, 4, 4, 4], [4, 3, 4, 4, 4, 4]]","[8, 3, 5, 5, 9]",10,4,5,0.057,0.05666666666666667,0.0003333333333333333,[],supersize,post-supersize,5,True,5,6,5,4,10073,True,implicit-mouselab,8,176005,supersize,4
mouselab,False,"[20, 15, 21, 26, 27]","[[4, 4, 3, 3, 5, 4], [7, 3, 6, 7, 6, 4], [2, 6, 7, 5, 4, 7], [5, 4, 4, 5, 2, 3], [5, 7, 2, 6, 3, 4]]","[[1, 1, 1, 1, 1, 1], [1, 1, 1, 1, 1, 1], [1, 1, 1, 0, 1, 1], [1, 1, 0, 0, 1, 1], [1, 1, 0, 0, 1, 1]]","[5, 5, 16, 2, 2]",20,5,3,0.051,0.04933333333333333,0.0016666666666666668,"[20, 15, 21, 26, 27]",supersize,pre-supersize,2,False,5,6,5,1,13038,True,implicit-mouselab,9,192003,supersize,4
mouselab,False,"[18, 21, 20]","[[3, 4, 3, 9, 4, 3], [4, 6, 6, 6, 5, 6], [5, 4, 6, 7, 5, 1], [5, 5, 5, 3, 4, 8], [5, 5, 6, 9, 4, 4]]","[[1, 1, 1, 1, 1, 1], [1, 1, 1, 1, 1, 1], [1, 1, 1, 1, 1, 1], [0, 1, 0, 0, 1, 1], [1, 1, 1, 1, 1, 1]]","[3, 6, 6, 12, 3]",12,6,5,0.053,0.052,0.001,"[18, 21, 20]",supersize,post-supersize,5,True,5,6,5,1,12203,True,implicit-mouselab,10,205901,supersize,4
mouselab,False,[],"[[6, 6, 6, 5, 6, 5], [4, 5, 5, 3, 3, 4], [3, 5, 6, 6, 6, 5], [6, 6, 4, 7, 7, 5], [5, 4, 7, 4, 6, 6]]","[[4, 4, 4, 4, 4, 4], [4, 4, 4, 4, 4, 4], [4, 4, 4, 4, 4, 4], [4, 4, 4, 4, 4, 4], [4, 4, 4, 4, 4, 4]]","[3, 4, 9, 11, 3]",16,7,5,0.05,0.05,0.0,[],supersize,post-supersize,5,True,5,6,5,4,4404,True,implicit-mouselab,11,211694,supersize,4
mouselab,False,[],"[[4, 3, 9, 5, 2, 6], [7, 3, 3, 6, 2, 7], [4, 6, 4, 6, 5, 7], [9, 2, 5, 5, 5, 6], [7, 5, 5, 5, 3, 7]]","[[4, 4, 4, 4, 4, 4], [4, 4, 4, 4, 4, 4], [4, 4, 4, 4, 4, 4], [4, 4, 4, 4, 4, 4], [4, 4, 4, 4, 4, 4]]","[3, 3, 18, 5, 1]",24,8,3,0.057,0.057,0.0,[],supersize,pre-supersize,4,False,5,6,5,4,1717,True,implicit-mouselab,12,215556,supersize,4
mouselab,False,[],"[[6, 4, 7, 8, 7], [5, 6, 3, 5, 4], [4, 5, 6, 5, 5], [5, 3, 8, 8, 5], [5, 6, 5, 5, 6]]","[[4, 4, 4, 4, 4], [4, 4, 4, 4, 4], [4, 4, 4, 4, 4], [4, 4, 4, 4, 4], [4, 4, 4, 4, 4]]","[2, 1, 4, 5, 18]",24,9,1,0.052,0.052,0.0,[],supersize,control,-1,False,5,5,5,4,1952,True,implicit-mouselab,13,220652,supersize,4
mouselab,False,"[20, 20, 20, 20, 18, 18, 18, 18, 18]","[[5, 4, 8, 3, 4], [3, 7, 6, 7, 3], [4, 4, 1, 8, 8], [1, 4, 6, 7, 7], [5, 4, 3, 4, 5]]","[[4, 4, 4, 4, 4], [4, 4, 4, 4, 4], [4, 4, 4, 4, 4], [0, 4, 0, 4, 4], [4, 4, 4, 4, 4]]","[15, 1, 2, 9, 3]",24,10,2,0.064,0.06133333333333334,0.0026666666666666666,"[20, 18]",supersize,control,-1,False,5,5,5,4,9473,True,implicit-mouselab,14,231107,supersize,4
mouselab,False,"[15, 16]","[[4, 5, 7, 8, 5, 3], [6, 8, 2, 6, 4, 5], [3, 5, 3, 2, 8, 5], [7, 5, 4, 6, 6, 4], [3, 2, 5, 5, 6, 5]]","[[1, 1, 1, 1, 1, 1], [1, 1, 1, 1, 1, 1], [1, 1, 1, 0, 0, 1], [1, 1, 1, 1, 1, 1], [1, 1, 1, 1, 1, 1]]","[5, 9, 9, 6, 1]",12,11,4,0.058,0.05733333333333333,0.0006666666666666666,"[15, 16]",supersize,pre-supersize,3,False,5,6,5,1,7679,True,implicit-mouselab,15,240748,supersize,4
mouselab,False,"[14, 20, 20, 20, 20]","[[3, 4, 5, 7, 6], [7, 8, 5, 3, 8], [6, 6, 2, 2, 6], [2, 2, 5, 6, 5], [3, 4, 7, 7, 6]]","[[4, 4, 4, 4, 4], [4, 4, 4, 4, 4], [4, 4, 3, 4, 4], [4, 4, 0, 4, 4], [4, 4, 4, 4, 4]]","[8, 3, 2, 5, 12]",16,12,2,0.056,0.05433333333333334,0.0016666666666666668,[20],supersize,control,-1,False,5,5,5,4,4522,True,implicit-mouselab,16,246246,supersize,4
mouselab,False,"[25, 24]","[[4, 2, 4, 4, 5, 3], [5, 6, 4, 7, 5, 4], [6, 4, 5, 5, 5, 6], [3, 7, 4, 5, 4, 6], [3, 1, 6, 3, 4, 4]]","[[1, 1, 1, 1, 1, 1], [1, 1, 1, 1, 1, 1], [1, 1, 1, 1, 1, 1], [1, 1, 1, 1, 1, 1], [0, 0, 1, 1, 1, 1]]","[5, 13, 1, 1, 10]",22,13,0,0.041,0.04033333333333333,0.0006666666666666666,"[25, 24]",supersize,pre-supersize,0,True,5,6,5,1,6058,True,implicit-mouselab,17,253442,supersize,4
mouselab,False,"[26, 14, 13, 12, 15, 16]","[[2, 5, 7, 5, 7], [7, 3, 8, 4, 4], [6, 4, 4, 6, 7], [6, 6, 2, 3, 3], [3, 6, 5, 4, 5]]","[[1, 1, 1, 1, 1], [1, 1, 1, 1, 1], [0, 0, 0, 0, 0], [1, 1, 1, 1, 1], [1, 1, 0, 1, 1]]","[9, 4, 10, 5, 2]",14,14,4,0.058,0.056,0.002,"[26, 14, 13, 12, 15, 16]",supersize,control,-1,False,5,5,5,1,8546,True,implicit-mouselab,18,263214,supersize,4
mouselab,False,[],"[[4, 6, 4, 7, 4, 6], [3, 3, 4, 5, 3, 4], [7, 5, 4, 5, 6, 5], [7, 5, 6, 5, 6, 6], [5, 6, 6, 8, 7, 4]]","[[4, 4, 4, 4, 4, 4], [4, 4, 4, 4, 4, 4], [4, 4, 4, 4, 4, 4], [4, 4, 4, 4, 4, 4], [4, 4, 4, 4, 4, 4]]","[4, 8, 9, 5, 4]",10,15,2,0.046,0.046,0.0,[],supersize,pre-supersize,2,True,5,6,5,4,5682,True,implicit-mouselab,19,270725,supersize,4
mouselab,False,"[18, 19, 20, 21, 22, 23]","[[3, 4, 6, 3, 4, 7], [6, 5, 5, 4, 7, 8], [3, 6, 6, 3, 4, 5], [3, 6, 3, 9, 2, 7], [2, 7, 3, 4, 7, 4]]","[[1, 1, 1, 1, 1, 1], [1, 1, 1, 1, 1, 1], [1, 1, 1, 1, 1, 1], [0, 0, 0, 0, 0, 0], [1, 1, 1, 1, 1, 1]]","[5, 1, 7, 9, 8]",12,16,3,0.051,0.048999999999999995,0.002,"[18, 19, 20, 21, 22, 23]",supersize,pre-supersize,0,False,5,6,5,1,6504,True,implicit-mouselab,20,280173,supersize,4
mouselab,False,"[12, 13, 14, 15, 16]","[[8, 4, 6, 5, 3, 4], [5, 5, 6, 5, 7, 9], [6, 6, 9, 5, 3, 5], [8, 8, 5, 4, 2, 8], [6, 7, 8, 6, 4, 4]]","[[1, 1, 1, 1, 1, 1], [1, 1, 1, 1, 1, 1], [0, 0, 0, 0, 0, 1], [1, 1, 1, 1, 1, 1], [1, 1, 1, 1, 1, 1]]","[4, 6, 12, 3, 5]",12,17,2,0.074,0.07233333333333333,0.0016666666666666668,"[12, 13, 14, 15, 16]",supersize,post-supersize,5,False,5,6,5,1,6695,True,implicit-mouselab,21,288192,supersize,4
mouselab,False,"[20, 19, 18, 21, 22]","[[2, 6, 4, 6, 5, 5], [10, 5, 5, 5, 4, 6], [7, 3, 4, 6, 7, 6], [6, 4, 2, 5, 8, 9], [3, 7, 6, 6, 5, 4]]","[[1, 1, 1, 1, 1, 1], [1, 1, 1, 1, 1, 1], [1, 1, 1, 1, 1, 1], [0, 0, 0, 0, 0, 1], [1, 1, 1, 1, 1, 1]]","[5, 6, 3, 12, 4]",12,18,5,0.068,0.06633333333333334,0.0016666666666666668,"[20, 19, 18, 21, 22]",supersize,post-supersize,5,True,5,6,5,1,8176,True,implicit-mouselab,22,297376,supersize,4
mouselab,False,[],"[[7, 4, 5, 7, 5], [5, 6, 9, 5, 6], [7, 4, 6, 4, 6], [5, 2, 3, 6, 4], [2, 4, 9, 5, 5]]","[[1, 1, 1, 1, 1], [1, 1, 1, 1, 1], [1, 1, 1, 1, 1], [1, 1, 1, 1, 1], [1, 1, 1, 1, 1]]","[12, 4, 1, 10, 3]",20,19,1,0.036,0.036,0.0,[],supersize,control,-1,False,5,5,5,1,5924,True,implicit-mouselab,23,310775,supersize,4
mouselab,False,"[10, 10, 10, 10]","[[6, 4, 5, 1, 9, 3], [2, 4, 3, 6, 5, 6], [2, 3, 4, 3, 5, 5], [4, 4, 6, 6, 5, 6], [6, 4, 4, 8, 7, 4]]","[[4, 4, 4, 4, 4, 4], [4, 4, 4, 4, 0, 4], [4, 4, 4, 4, 4, 4], [4, 4, 4, 4, 4, 4], [4, 4, 4, 4, 4, 4]]","[3, 15, 8, 3, 1]",22,20,4,0.055,0.05366666666666667,0.0013333333333333333,[10],supersize,pre-supersize,4,True,5,6,5,4,7245,True,implicit-mouselab,24,320569,supersize,4
mouselab,False,"[18, 18, 18, 18, 19, 19, 19, 19]","[[7, 9, 7, 5, 4], [3, 4, 3, 5, 6], [2, 4, 4, 4, 5], [8, 5, 6, 4, 1], [7, 6, 6, 6, 4]]","[[4, 4, 4, 4, 4], [4, 4, 4, 4, 4], [4, 4, 4, 4, 4], [0, 0, 4, 4, 4], [4, 4, 4, 4, 4]]","[1, 6, 9, 13, 1]",20,21,0,0.051,0.04833333333333333,0.0026666666666666666,"[18, 19]",supersize,control,-1,False,5,5,5,4,5864,True,implicit-mouselab,25,327330,supersize,4
mouselab,False,"[24, 25, 26, 27, 28]","[[6, 9, 6, 6, 4], [6, 7, 5, 7, 5], [6, 4, 4, 5, 5], [2, 7, 4, 6, 4], [7, 6, 4, 7, 1]]","[[1, 1, 1, 1, 1], [1, 1, 1, 1, 1], [1, 1, 1, 1, 1], [1, 1, 1, 1, 1], [0, 0, 0, 0, 0]]","[1, 10, 2, 7, 10]",18,22,0,0.054,0.052333333333333336,0.0016666666666666668,"[24, 25, 26, 27, 28]",supersize,control,-1,False,5,5,5,1,5808,True,implicit-mouselab,26,334443,supersize,4
mouselab,False,"[0, 0, 0, 0, 2, 2, 2, 2]","[[7, 10, 2, 4, 4, 4], [7, 5, 5, 3, 7, 4], [3, 7, 4, 5, 7, 8], [7, 4, 7, 3, 7, 5], [5, 10, 3, 3, 4, 5]]","[[0, 4, 0, 4, 4, 4], [4, 4, 4, 4, 4, 4], [4, 4, 4, 4, 4, 4], [4, 4, 4, 4, 4, 4], [4, 4, 4, 4, 4, 4]]","[11, 8, 4, 6, 1]",14,23,0,0.064,0.06133333333333334,0.0026666666666666666,"[0, 2]",supersize,post-supersize,5,False,5,6,5,4,8707,True,implicit-mouselab,27,345478,supersize,4
mouselab,False,[],"[[5, 7, 4, 5, 4, 5], [5, 6, 2, 8, 5, 4], [5, 7, 5, 5, 5, 6], [1, 3, 7, 2, 6, 5], [8, 3, 4, 2, 6, 6]]","[[1, 1, 1, 1, 1, 1], [1, 1, 1, 1, 1, 1], [1, 1, 1, 1, 1, 1], [1, 1, 1, 1, 1, 1], [1, 1, 1, 1, 1, 1]]","[1, 16, 1, 6, 6]",20,24,2,0.036,0.036,0.0,[],supersize,pre-supersize,2,True,5,6,5,1,11533,True,implicit-mouselab,28,358406,supersize,4
mouselab,False,"[7, 8, 9, 10, 6]","[[4, 4, 6, 4, 6], [4, 2, 3, 5, 3], [8, 4, 3, 7, 3], [7, 6, 5, 7, 5], [6, 7, 5, 5, 3]]","[[1, 1, 1, 1, 1], [0, 0, 0, 0, 0], [1, 1, 1, 1, 1], [1, 1, 1, 1, 1], [1, 1, 1, 1, 1]]","[3, 8, 6, 9, 4]",10,25,2,0.042,0.04033333333333334,0.0016666666666666668,"[7, 8, 9, 10, 6]",supersize,control,-1,False,5,5,5,1,7869,True,implicit-mouselab,29,382243,supersize,4
mouselab,False,"[14, 14, 14, 14, 13, 13, 13, 13, 12, 12, 12, 12, 15, 15, 15, 15]","[[6, 4, 5, 7, 6, 5], [8, 6, 4, 4, 3, 10], [4, 5, 5, 7, 3, 4], [6, 4, 5, 3, 5, 5], [4, 5, 6, 5, 6, 3]]","[[4, 4, 4, 4, 4, 4], [4, 4, 4, 4, 4, 4], [0, 0, 0, 0, 4, 4], [4, 4, 4, 4, 4, 4], [4, 4, 4, 4, 4, 4]]","[1, 4, 16, 7, 2]",22,26,3,0.055,0.049666666666666665,0.005333333333333333,"[14, 13, 12, 15]",supersize,post-supersize,5,False,5,6,5,4,12802,True,implicit-mouselab,30,398084,supersize,4
mouselab,False,[],"[[2, 6, 7, 5, 1, 2], [1, 6, 4, 3, 5, 4], [5, 4, 2, 6, 3, 6], [7, 5, 3, 2, 0, 5], [6, 3, 4, 2, 2, 4]]","[[4, 4, 4, 4, 4, 4], [4, 4, 4, 4, 4, 4], [4, 4, 4, 4, 4, 4], [4, 4, 4, 4, 4, 4], [4, 4, 4, 4, 4, 4]]","[12, 1, 4, 11, 2]",22,27,1,0.052,0.052,0.0,[],supersize,post-supersize,5,False,5,6,5,4,6717,True,implicit-mouselab,31,407150,supersize,4
mouselab,False,"[24, 24, 24, 24, 25, 25, 25, 25]","[[10, 3, 5, 5, 4, 3], [3, 4, 5, 5, 6, 5], [6, 5, 3, 2, 7, 6], [5, 4, 3, 4, 7, 8], [7, 4, 7, 2, 8, 7]]","[[4, 4, 4, 4, 4, 4], [4, 4, 4, 4, 4, 4], [4, 4, 4, 4, 4, 4], [4, 4, 4, 4, 4, 4], [0, 0, 4, 4, 4, 4]]","[1, 11, 1, 2, 15]",28,28,0,0.055,0.052333333333333336,0.0026666666666666666,"[24, 25]",supersize,pre-supersize,0,True,5,6,5,4,8950,True,implicit-mouselab,32,417347,supersize,4
mouselab,False,"[1, 2, 3, 4, 0]","[[5, 8, 5, 3, 6, 6], [6, 4, 7, 5, 5, 3], [7, 6, 5, 5, 2, 6], [6, 5, 6, 7, 2, 7], [6, 4, 6, 3, 5, 6]]","[[0, 0, 0, 0, 0, 1], [1, 1, 1, 1, 1, 1], [1, 1, 1, 1, 1, 1], [1, 1, 1, 1, 1, 1], [1, 1, 1, 1, 1, 1]]","[11, 5, 10, 1, 3]",18,29,1,0.062,0.060333333333333336,0.0016666666666666668,"[1, 2, 3, 4, 0]",supersize,post-supersize,5,False,5,6,5,1,11674,True,implicit-mouselab,33,430190,supersize,4
mouselab,False,[],"[[4, 5, 2, 5, 4], [8, 4, 6, 5, 3], [4, 7, 6, 6, 5], [6, 6, 6, 4, 6], [4, 4, 4, 6, 3]]","[[4, 4, 4, 4, 4], [4, 4, 4, 4, 4], [4, 4, 4, 4, 4], [4, 4, 4, 4, 4], [4, 4, 4, 4, 4]]","[9, 4, 12, 4, 1]",18,30,1,0.058,0.058,0.0,[],supersize,control,-1,False,5,5,5,4,3758,True,implicit-mouselab,34,435623,supersize,4
mouselab,False,"[8, 8, 8, 8, 7, 6, 9, 10, 11, 20, 21, 22, 19, 18]","[[7, 7, 6, 6, 3, 4], [6, 7, 7, 6, 5, 5], [9, 5, 5, 4, 8, 6], [3, 4, 6, 2, 4, 8], [6, 5, 4, 6, 4, 4]]","[[1, 1, 1, 1, 1, 1], [0, 0, 0, 0, 0, 0], [1, 1, 1, 1, 1, 1], [0, 0, 0, 0, 0, 1], [1, 1, 1, 1, 1, 1]]","[7, 9, 6, 7, 1]",10,31,2,0.06,0.05633333333333333,0.0036666666666666666,"[8, 7, 6, 9, 10, 11, 20, 21, 22, 19, 18]",supersize,post-supersize,5,False,5,6,5,1,15710,True,implicit-mouselab,35,452876,supersize,4
mouselab,False,[],"[[7, 2, 5, 5, 4, 8], [4, 6, 5, 4, 5, 7], [9, 7, 3, 3, 6, 4], [5, 3, 4, 4, 3, 6], [5, 5, 6, 5, 4, 4]]","[[4, 4, 4, 4, 4, 4], [4, 4, 4, 4, 4, 4], [4, 4, 4, 4, 4, 4], [4, 4, 4, 4, 4, 4], [4, 4, 4, 4, 4, 4]]","[7, 12, 1, 6, 4]",14,32,1,0.044,0.044,0.0,[],supersize,pre-supersize,4,False,5,6,5,4,7054,True,implicit-mouselab,36,461870,supersize,4
mouselab,True,"[12, 2, 15, 7, 4]","[[4, 7, 5, 7, 5], [6, 4, 4, 6, 2], [8, 4, 7, 2, 3], [9, 6, 4, 7, 4], [7, 5, 7, 6, 3]]","[[1, 1, 0, 1, 0], [1, 0, 1, 1, 1], [0, 1, 1, 0, 1], [1, 1, 1, 1, 1], [1, 1, 1, 1, 1]]","[7, 4, 8, 3, 8]",10,1,0,0.066,0.06433333333333334,0.0016666666666666668,"[12, 2, 15, 7, 4]",supersize,control,-1,False,5,5,5,1,47294,True,implicit-mouselab,4,240853,supersize,5
mouselab,True,"[14, 14, 14, 14]","[[4, 7, 2, 6, 5], [4, 6, 3, 3, 6], [2, 5, 5, 4, 6], [2, 5, 5, 2, 2], [2, 8, 7, 7, 6]]","[[4, 4, 4, 4, 4], [4, 4, 4, 4, 4], [4, 4, 0, 4, 4], [4, 4, 4, 4, 4], [4, 4, 4, 4, 4]]","[3, 7, 9, 6, 5]",8,2,3,0.041,0.03966666666666667,0.0013333333333333333,[14],supersize,control,-1,False,5,5,5,4,19753,True,implicit-mouselab,5,264961,supersize,5
mouselab,False,[7],"[[3, 6, 6, 4, 1, 3], [1, 6, 3, 6, 3, 2], [4, 6, 6, 2, 3, 4], [6, 4, 8, 8, 5, 6], [5, 2, 3, 9, 7, 4]]","[[1, 1, 1, 1, 1, 1], [1, 0, 1, 1, 1, 1], [1, 1, 1, 1, 1, 1], [1, 1, 1, 1, 1, 1], [1, 1, 1, 1, 1, 1]]","[8, 11, 6, 3, 2]",14,3,1,0.055,0.05466666666666667,0.0003333333333333333,[7],supersize,pre-supersize,5,False,5,6,5,1,7805,True,implicit-mouselab,7,282141,supersize,5
mouselab,False,"[17, 14]","[[8, 6, 5, 6, 7, 6], [6, 3, 4, 6, 4, 4], [8, 7, 6, 4, 5, 5], [6, 7, 4, 8, 5, 7], [6, 6, 9, 6, 6, 3]]","[[1, 1, 1, 1, 1, 1], [1, 1, 1, 1, 1, 1], [1, 1, 0, 1, 1, 0], [1, 1, 1, 1, 1, 1], [1, 1, 1, 1, 1, 1]]","[2, 3, 15, 5, 5]",18,4,2,0.059,0.05833333333333333,0.0006666666666666666,"[17, 14]",supersize,pre-supersize,0,False,5,6,5,1,12216,True,implicit-mouselab,8,301850,supersize,5
mouselab,False,[],"[[6, 3, 4, 4, 6], [6, 8, 5, 5, 5], [4, 9, 4, 5, 5], [6, 5, 2, 5, 6], [6, 6, 5, 5, 6]]","[[4, 4, 4, 4, 4], [4, 4, 4, 4, 4], [4, 4, 4, 4, 4], [4, 4, 4, 4, 4], [4, 4, 4, 4, 4]]","[4, 6, 10, 3, 7]",10,5,3,0.049,0.049,0.0,[],supersize,control,-1,False,5,5,5,4,10372,True,implicit-mouselab,9,316768,supersize,5
mouselab,False,"[14, 12, 17, 16]","[[6, 2, 6, 8, 4, 5], [8, 7, 5, 6, 5, 3], [3, 4, 5, 4, 6, 4], [1, 5, 5, 6, 2, 3], [9, 3, 6, 5, 4, 3]]","[[1, 1, 1, 1, 1, 1], [1, 1, 1, 1, 1, 1], [0, 1, 0, 1, 0, 0], [1, 1, 1, 1, 1, 1], [1, 1, 1, 1, 1, 1]]","[1, 1, 13, 4, 11]",24,6,2,0.054,0.05266666666666667,0.0013333333333333333,"[14, 12, 17, 16]",supersize,pre-supersize,1,False,5,6,5,1,18764,True,implicit-mouselab,10,341473,supersize,5
mouselab,False,[],"[[5, 6, 4, 6, 6, 3], [4, 8, 5, 5, 3, 7], [6, 7, 4, 6, 4, 5], [7, 8, 7, 6, 3, 7], [6, 5, 8, 5, 4, 6]]","[[4, 4, 4, 4, 4, 4], [4, 4, 4, 4, 4, 4], [4, 4, 4, 4, 4, 4], [4, 4, 4, 4, 4, 4], [4, 4, 4, 4, 4, 4]]","[1, 4, 9, 4, 12]",18,7,1,0.064,0.064,0.0,[],supersize,post-supersize,5,False,5,6,5,4,21824,True,implicit-mouselab,11,369520,supersize,5
mouselab,False,[],"[[5, 3, 5, 4, 7], [2, 6, 6, 4, 4], [4, 8, 8, 6, 4], [6, 2, 6, 5, 6], [7, 4, 5, 4, 7]]","[[4, 4, 4, 4, 4], [4, 4, 4, 4, 4], [4, 4, 4, 4, 4], [4, 4, 4, 4, 4], [4, 4, 4, 4, 4]]","[1, 8, 2, 5, 14]",20,8,2,0.056,0.056,0.0,[],supersize,control,-1,False,5,5,5,4,5984,True,implicit-mouselab,12,381276,supersize,5
mouselab,False,"[12, 13, 14, 15, 16]","[[4, 7, 1, 2, 9], [5, 6, 4, 5, 8], [5, 6, 7, 6, 3], [2, 2, 5, 5, 2], [3, 4, 5, 4, 4]]","[[1, 1, 1, 1, 1], [1, 1, 1, 1, 1], [0, 0, 0, 0, 0], [1, 1, 1, 1, 1], [1, 1, 1, 1, 1]]","[3, 3, 9, 8, 7]",12,9,2,0.051,0.04933333333333333,0.0016666666666666668,"[12, 13, 14, 15, 16]",supersize,control,-1,False,5,5,5,1,10146,True,implicit-mouselab,13,394361,supersize,5
mouselab,False,"[5, 5, 5, 5]","[[4, 6, 7, 6, 4, 5], [5, 6, 4, 5, 5, 9], [9, 7, 6, 3, 6, 1], [1, 1, 8, 5, 7, 4], [4, 5, 6, 6, 2, 5]]","[[4, 4, 4, 4, 4, 0], [4, 4, 4, 4, 4, 4], [4, 4, 4, 4, 4, 4], [4, 4, 4, 4, 4, 4], [4, 4, 4, 4, 4, 4]]","[11, 5, 6, 3, 5]",10,10,0,0.049,0.04766666666666667,0.0013333333333333333,[5],supersize,pre-supersize,0,True,5,6,5,4,11462,True,implicit-mouselab,14,412574,supersize,5
mouselab,False,"[6, 18, 22]","[[4, 8, 1, 3, 6, 5], [4, 6, 6, 5, 5, 5], [7, 6, 6, 6, 5, 6], [3, 5, 4, 8, 9, 4], [6, 7, 7, 5, 6, 4]]","[[1, 1, 1, 1, 1, 1], [0, 1, 1, 1, 1, 1], [1, 1, 1, 1, 1, 1], [0, 1, 1, 1, 0, 1], [1, 1, 1, 1, 1, 1]]","[5, 7, 3, 14, 1]",18,11,4,0.071,0.06999999999999999,0.001,"[6, 18, 22]",supersize,post-supersize,5,False,5,6,5,1,18931,True,implicit-mouselab,15,437132,supersize,5
mouselab,False,[],"[[4, 5, 6, 6, 2, 5], [4, 7, 9, 8, 5, 6], [5, 6, 7, 7, 6, 6], [2, 6, 7, 2, 6, 3], [5, 6, 6, 6, 4, 2]]","[[4, 4, 4, 4, 4, 4], [4, 4, 4, 4, 4, 4], [4, 4, 4, 4, 4, 4], [4, 4, 4, 4, 4, 4], [4, 4, 4, 4, 4, 4]]","[2, 7, 16, 3, 2]",22,12,1,0.062,0.062,0.0,[],supersize,post-supersize,5,False,5,6,5,4,8976,True,implicit-mouselab,16,449417,supersize,5
mouselab,False,"[28, 24, 26, 29]","[[5, 5, 5, 1, 5, 3], [4, 5, 5, 2, 7, 7], [0, 3, 5, 5, 8, 7], [7, 7, 3, 7, 4, 1], [7, 4, 6, 2, 6, 4]]","[[1, 1, 1, 1, 1, 1], [1, 1, 1, 1, 1, 1], [1, 1, 1, 1, 1, 1], [1, 1, 1, 1, 1, 1], [0, 1, 0, 1, 0, 0]]","[9, 2, 4, 3, 12]",18,13,0,0.053,0.051666666666666666,0.0013333333333333333,"[28, 24, 26, 29]",supersize,post-supersize,5,False,5,6,5,1,20564,True,implicit-mouselab,17,474538,supersize,5
mouselab,False,[6],"[[6, 5, 7, 3, 6, 3], [6, 5, 5, 5, 4, 5], [7, 4, 5, 3, 4, 3], [3, 5, 6, 4, 6, 9], [5, 3, 4, 4, 4, 6]]","[[1, 1, 1, 1, 1, 1], [0, 1, 1, 1, 1, 1], [1, 1, 1, 1, 1, 1], [1, 1, 1, 1, 1, 1], [1, 1, 1, 1, 1, 1]]","[3, 13, 6, 2, 6]",14,14,0,0.058,0.05766666666666667,0.0003333333333333333,[6],supersize,post-supersize,5,False,5,6,5,1,10889,True,implicit-mouselab,18,488016,supersize,5
mouselab,False,[],"[[4, 3, 4, 5, 6], [5, 5, 5, 7, 5], [9, 6, 6, 5, 2], [4, 5, 4, 6, 4], [4, 3, 5, 5, 4]]","[[4, 4, 4, 4, 4], [4, 4, 4, 4, 4], [4, 4, 4, 4, 4], [4, 4, 4, 4, 4], [4, 4, 4, 4, 4]]","[10, 7, 7, 5, 1]",12,15,1,0.045,0.045,0.0,[],supersize,control,-1,False,5,5,5,4,5365,True,implicit-mouselab,19,498051,supersize,5
mouselab,False,"[23, 5]","[[7, 5, 6, 5, 9, 3], [7, 8, 3, 4, 4, 4], [6, 4, 7, 3, 5, 4], [9, 2, 5, 6, 7, 6], [5, 9, 5, 4, 6, 8]]","[[1, 1, 1, 1, 1, 0], [1, 1, 1, 1, 1, 1], [1, 1, 1, 1, 1, 1], [1, 1, 1, 1, 1, 0], [1, 1, 1, 1, 1, 1]]","[12, 1, 7, 8, 2]",18,16,5,0.044,0.04333333333333333,0.0006666666666666666,"[23, 5]",supersize,pre-supersize,5,True,5,6,5,1,19123,True,implicit-mouselab,20,519380,supersize,5
mouselab,False,"[22, 19]","[[4, 6, 5, 7, 7, 6], [4, 3, 4, 2, 3, 4], [6, 8, 5, 5, 4, 5], [8, 6, 2, 1, 5, 4], [4, 4, 8, 1, 5, 3]]","[[1, 1, 1, 1, 1, 1], [1, 1, 1, 1, 1, 1], [1, 1, 1, 1, 1, 1], [1, 0, 1, 1, 0, 1], [1, 1, 1, 1, 1, 1]]","[3, 3, 10, 13, 1]",22,17,4,0.047,0.04633333333333333,0.0006666666666666666,"[22, 19]",supersize,pre-supersize,4,True,5,6,5,1,9641,True,implicit-mouselab,21,532217,supersize,5
mouselab,False,[],"[[5, 5, 6, 6, 7, 7], [6, 3, 3, 6, 5, 3], [7, 6, 3, 7, 7, 6], [4, 4, 6, 4, 5, 7], [1, 4, 5, 7, 4, 2]]","[[4, 4, 4, 4, 4, 4], [4, 4, 4, 4, 4, 4], [4, 4, 4, 4, 4, 4], [4, 4, 4, 4, 4, 4], [4, 4, 4, 4, 4, 4]]","[6, 6, 8, 5, 5]",4,18,2,0.044,0.044,0.0,[],supersize,post-supersize,5,False,5,6,5,4,8943,True,implicit-mouselab,22,544221,supersize,5
mouselab,False,"[21, 0, 18]","[[4, 8, 5, 4, 4, 1], [8, 5, 5, 6, 6, 5], [9, 6, 5, 5, 8, 7], [5, 4, 5, 3, 5, 4], [6, 2, 3, 3, 6, 4]]","[[0, 1, 1, 1, 1, 1], [1, 1, 1, 1, 1, 1], [1, 1, 1, 1, 1, 1], [0, 1, 1, 0, 1, 1], [1, 1, 1, 1, 1, 1]]","[8, 3, 8, 10, 1]",16,19,4,0.057,0.056,0.001,"[21, 0, 18]",supersize,post-supersize,5,False,5,6,5,1,14230,True,implicit-mouselab,23,563324,supersize,5
mouselab,False,"[9, 7, 8]","[[4, 5, 9, 3, 2, 3], [7, 3, 5, 3, 6, 5], [4, 2, 5, 7, 2, 5], [5, 2, 4, 3, 4, 6], [8, 5, 5, 5, 5, 2]]","[[1, 1, 1, 1, 1, 1], [1, 0, 0, 0, 1, 1], [1, 1, 1, 1, 1, 1], [1, 1, 1, 1, 1, 1], [1, 1, 1, 1, 1, 1]]","[3, 15, 2, 2, 8]",22,20,2,0.053,0.052,0.001,"[9, 7, 8]",supersize,post-supersize,5,False,5,6,5,1,10900,True,implicit-mouselab,24,577072,supersize,5
mouselab,False,"[13, 13, 13, 13]","[[6, 6, 5, 4, 3, 5], [5, 5, 6, 2, 5, 6], [5, 7, 8, 5, 6, 5], [5, 4, 3, 5, 8, 5], [6, 6, 6, 7, 5, 3]]","[[4, 4, 4, 4, 4, 4], [4, 4, 4, 4, 4, 4], [4, 0, 4, 4, 4, 4], [4, 4, 4, 4, 4, 4], [4, 4, 4, 4, 4, 4]]","[4, 4, 12, 5, 5]",12,21,2,0.062,0.06066666666666667,0.0013333333333333333,[13],supersize,pre-supersize,2,True,5,6,5,4,9549,True,implicit-mouselab,25,589952,supersize,5
mouselab,False,"[16, 4, 12, 0]","[[7, 4, 5, 5, 3], [4, 5, 4, 6, 5], [6, 5, 5, 8, 3], [5, 9, 3, 5, 3], [6, 7, 9, 7, 5]]","[[0, 1, 1, 1, 0], [1, 1, 1, 1, 1], [0, 1, 1, 1, 0], [1, 1, 1, 1, 1], [1, 1, 1, 1, 1]]","[11, 3, 11, 2, 3]",20,22,0,0.061,0.059666666666666666,0.0013333333333333333,"[16, 4, 12, 0]",supersize,control,-1,False,5,5,5,1,11801,True,implicit-mouselab,26,606209,supersize,5
mouselab,False,"[12, 14, 15]","[[6, 6, 7, 5, 3], [4, 7, 6, 4, 4], [5, 3, 5, 5, 4], [4, 4, 6, 6, 3], [8, 6, 10, 5, 9]]","[[1, 1, 1, 1, 1], [1, 1, 1, 1, 1], [0, 1, 0, 0, 1], [1, 1, 1, 1, 1], [1, 1, 1, 1, 1]]","[2, 7, 13, 6, 2]",16,23,0,0.048,0.047,0.001,"[12, 14, 15]",supersize,control,-1,False,5,5,5,1,10697,True,implicit-mouselab,27,620114,supersize,5
mouselab,False,[],"[[8, 6, 4, 5, 6, 6], [2, 5, 3, 6, 5, 6], [5, 5, 5, 4, 5, 3], [5, 1, 6, 2, 5, 3], [3, 5, 5, 3, 5, 5]]","[[4, 4, 4, 4, 4, 4], [4, 4, 4, 4, 4, 4], [4, 4, 4, 4, 4, 4], [4, 4, 4, 4, 4, 4], [4, 4, 4, 4, 4, 4]]","[7, 3, 4, 10, 6]",10,24,2,0.049,0.049,0.0,[],supersize,post-supersize,5,False,5,6,5,4,5376,True,implicit-mouselab,28,628945,supersize,5
mouselab,False,[],"[[6, 5, 6, 7, 5, 3], [8, 7, 3, 4, 5, 2], [4, 7, 4, 5, 6, 4], [8, 8, 7, 6, 4, 4], [4, 2, 5, 7, 6, 5]]","[[4, 4, 4, 4, 4, 4], [4, 4, 4, 4, 4, 4], [4, 4, 4, 4, 4, 4], [4, 4, 4, 4, 4, 4], [4, 4, 4, 4, 4, 4]]","[16, 1, 10, 2, 1]",28,25,3,0.062,0.062,0.0,[],supersize,post-supersize,5,False,5,6,5,4,3813,True,implicit-mouselab,29,636494,supersize,5
mouselab,False,[],"[[4, 2, 6, 7, 5, 3], [6, 3, 7, 3, 6, 8], [5, 7, 7, 7, 2, 1], [5, 7, 5, 3, 8, 7], [6, 5, 6, 2, 4, 5]]","[[4, 4, 4, 4, 4, 4], [4, 4, 4, 4, 4, 4], [4, 4, 4, 4, 4, 4], [4, 4, 4, 4, 4, 4], [4, 4, 4, 4, 4, 4]]","[2, 8, 8, 7, 5]",10,26,5,0.051,0.051,0.0,[],supersize,pre-supersize,5,True,5,6,5,4,4331,True,implicit-mouselab,30,644819,supersize,5
mouselab,False,"[12, 14]","[[5, 3, 6, 8, 7], [4, 7, 7, 7, 2], [4, 6, 4, 4, 2], [4, 1, 7, 4, 8], [3, 5, 4, 4, 3]]","[[1, 1, 1, 1, 1], [1, 1, 1, 1, 1], [0, 1, 0, 1, 1], [1, 1, 1, 1, 1], [1, 1, 1, 1, 1]]","[4, 1, 14, 2, 9]",22,27,3,0.046,0.04533333333333333,0.0006666666666666666,"[12, 14]",supersize,control,-1,False,5,5,5,1,7210,True,implicit-mouselab,31,658252,supersize,5
mouselab,False,[],"[[2, 3, 5, 10, 7, 3], [4, 6, 3, 3, 3, 6], [7, 5, 6, 7, 5, 8], [6, 6, 5, 1, 3, 5], [3, 7, 4, 6, 4, 8]]","[[4, 4, 4, 4, 4, 4], [4, 4, 4, 4, 4, 4], [4, 4, 4, 4, 4, 4], [4, 4, 4, 4, 4, 4], [4, 4, 4, 4, 4, 4]]","[3, 2, 19, 2, 4]",26,28,5,0.072,0.072,0.0,[],supersize,pre-supersize,4,False,5,6,5,4,7424,True,implicit-mouselab,32,670683,supersize,5
mouselab,False,[],"[[3, 8, 8, 9, 5], [6, 8, 5, 5, 4], [7, 8, 5, 2, 4], [4, 2, 3, 4, 6], [9, 3, 5, 4, 5]]","[[4, 4, 4, 4, 4], [4, 4, 4, 4, 4], [4, 4, 4, 4, 4], [4, 4, 4, 4, 4], [4, 4, 4, 4, 4]]","[1, 3, 16, 8, 2]",24,29,0,0.061,0.061,0.0,[],supersize,control,-1,False,5,5,5,4,3587,True,implicit-mouselab,33,677670,supersize,5
mouselab,False,[],"[[2, 1, 3, 7, 7, 7], [3, 5, 7, 6, 6, 7], [5, 5, 6, 5, 6, 5], [3, 6, 7, 5, 6, 3], [5, 6, 8, 5, 4, 5]]","[[4, 4, 4, 4, 4, 4], [4, 4, 4, 4, 4, 4], [4, 4, 4, 4, 4, 4], [4, 4, 4, 4, 4, 4], [4, 4, 4, 4, 4, 4]]","[6, 4, 3, 2, 15]",18,30,2,0.066,0.066,0.0,[],supersize,pre-supersize,0,False,5,6,5,4,3452,True,implicit-mouselab,34,685511,supersize,5
mouselab,False,[],"[[7, 2, 6, 3, 4], [5, 5, 4, 6, 6], [3, 8, 5, 3, 5], [5, 7, 3, 4, 8], [6, 7, 4, 6, 4]]","[[4, 4, 4, 4, 4], [4, 4, 4, 4, 4], [4, 4, 4, 4, 4], [4, 4, 4, 4, 4], [4, 4, 4, 4, 4]]","[11, 12, 3, 2, 2]",22,31,3,0.045,0.045,0.0,[],supersize,control,-1,False,5,5,5,4,3700,True,implicit-mouselab,35,692654,supersize,5
mouselab,False,"[19, 20, 22]","[[3, 4, 4, 5, 5], [9, 6, 3, 6, 6], [6, 6, 1, 4, 8], [5, 3, 7, 5, 8], [7, 4, 5, 6, 9]]","[[1, 1, 1, 1, 1], [1, 1, 1, 1, 1], [1, 1, 1, 1, 1], [1, 0, 0, 1, 0], [1, 1, 1, 1, 1]]","[6, 2, 10, 10, 2]",16,32,4,0.073,0.072,0.001,"[19, 20, 22]",supersize,control,-1,False,5,5,5,1,9033,True,implicit-mouselab,36,707751,supersize,5
mouselab,True,"[12, 13, 14, 15, 16, 12, 13, 14, 15, 16, 12, 12, 13, 13, 14, 14, 15, 15, 16, 16, 26, 26, 26, 26]","[[6, 6, 5, 4, 6], [2, 8, 4, 4, 3], [4, 3, 5, 4, 5], [4, 3, 4, 5, 4], [6, 4, 5, 8, 7]]","[[4, 4, 4, 4, 4], [4, 4, 4, 4, 4], [0, 0, 0, 0, 0], [4, 4, 4, 4, 4], [4, 4, 0, 4, 4]]","[3, 3, 15, 3, 6]",18,1,2,0.048,0.04,0.008,"[12, 13, 14, 15, 16, 26]",supersize,control,-1,False,5,5,5,4,34327,True,implicit-mouselab,4,296251,supersize,6
mouselab,True,"[6, 7, 8, 9, 10]","[[5, 5, 3, 1, 6], [6, 5, 5, 5, 3], [5, 6, 2, 5, 4], [3, 4, 6, 5, 5], [4, 5, 6, 2, 7]]","[[1, 1, 1, 1, 1], [0, 0, 0, 0, 0], [1, 1, 1, 1, 1], [1, 1, 1, 1, 1], [1, 1, 1, 1, 1]]","[4, 11, 3, 4, 8]",14,2,0,0.048,0.04633333333333334,0.0016666666666666668,"[6, 7, 8, 9, 10]",supersize,control,-1,False,5,5,5,1,6988,True,implicit-mouselab,5,316873,supersize,6
mouselab,False,[],"[[3, 3, 3, 6, 8, 5], [6, 7, 3, 6, 7, 4], [3, 7, 3, 8, 5, 3], [6, 7, 6, 2, 5, 6], [5, 7, 3, 6, 7, 3]]","[[4, 4, 4, 4, 4, 4], [4, 4, 4, 4, 4, 4], [4, 4, 4, 4, 4, 4], [4, 4, 4, 4, 4, 4], [4, 4, 4, 4, 4, 4]]","[5, 7, 11, 5, 2]",12,3,2,0.035,0.035,0.0,[],supersize,post-supersize,5,False,5,6,5,4,38205,True,implicit-mouselab,7,365103,supersize,6
mouselab,False,[],"[[3, 7, 7, 4, 4, 3], [6, 5, 5, 4, 4, 2], [3, 0, 1, 5, 6, 6], [5, 4, 6, 3, 5, 7], [4, 5, 6, 1, 7, 4]]","[[1, 1, 1, 1, 1, 1], [1, 1, 1, 1, 1, 1], [1, 1, 1, 1, 1, 1], [1, 1, 1, 1, 1, 1], [1, 1, 1, 1, 1, 1]]","[2, 3, 11, 9, 5]",16,4,3,0.036,0.036,0.0,[],supersize,pre-supersize,4,False,5,6,5,1,17961,True,implicit-mouselab,8,387051,supersize,6
mouselab,False,"[9, 7]","[[3, 7, 7, 5, 1], [8, 9, 1, 5, 6], [5, 5, 5, 8, 6], [6, 8, 8, 8, 6], [5, 5, 4, 7, 7]]","[[1, 1, 1, 1, 1], [1, 0, 1, 0, 1], [1, 1, 1, 1, 1], [1, 1, 1, 1, 1], [1, 1, 1, 1, 1]]","[1, 13, 5, 1, 10]",22,5,1,0.069,0.06833333333333334,0.0006666666666666666,"[9, 7]",supersize,control,-1,False,5,5,5,1,13502,True,implicit-mouselab,9,403134,supersize,6
mouselab,False,"[4, 2]","[[4, 3, 7, 6, 5, 7], [7, 5, 6, 5, 5, 6], [5, 6, 5, 4, 6, 7], [2, 3, 3, 3, 5, 7], [2, 6, 8, 7, 4, 7]]","[[1, 1, 0, 1, 0, 1], [1, 1, 1, 1, 1, 1], [1, 1, 1, 1, 1, 1], [1, 1, 1, 1, 1, 1], [1, 1, 1, 1, 1, 1]]","[12, 1, 4, 6, 7]",14,6,2,0.061,0.06033333333333333,0.0006666666666666666,"[4, 2]",supersize,pre-supersize,4,False,5,6,5,1,9824,True,implicit-mouselab,10,415556,supersize,6
mouselab,False,[7],"[[1, 6, 3, 2, 6], [5, 1, 9, 0, 5], [5, 3, 4, 6, 7], [3, 3, 5, 3, 4], [6, 7, 7, 7, 5]]","[[4, 4, 4, 4, 4], [4, 3, 4, 4, 4], [4, 4, 4, 4, 4], [4, 4, 4, 4, 4], [4, 4, 4, 4, 4]]","[1, 21, 2, 5, 1]",30,7,4,0.05,0.04966666666666667,0.0003333333333333333,[],supersize,control,-1,False,5,5,5,4,9303,True,implicit-mouselab,11,432107,supersize,6
mouselab,False,"[14, 14, 14, 14]","[[3, 2, 6, 5, 7, 3], [7, 7, 6, 5, 6, 3], [4, 3, 7, 7, 8, 9], [4, 4, 5, 1, 5, 4], [4, 6, 3, 6, 6, 2]]","[[4, 4, 4, 4, 4, 4], [4, 4, 4, 4, 4, 4], [4, 4, 0, 4, 4, 4], [4, 4, 4, 4, 4, 4], [4, 4, 4, 4, 4, 4]]","[2, 10, 12, 5, 1]",20,8,5,0.055,0.05366666666666667,0.0013333333333333333,[14],supersize,post-supersize,5,True,5,6,5,4,14739,True,implicit-mouselab,12,450091,supersize,6
mouselab,False,[],"[[3, 8, 4, 1, 5], [4, 8, 2, 8, 3], [5, 4, 4, 7, 8], [4, 7, 6, 4, 3], [5, 3, 4, 6, 6]]","[[4, 4, 4, 4, 4], [4, 4, 4, 4, 4], [4, 4, 4, 4, 4], [4, 4, 4, 4, 4], [4, 4, 4, 4, 4]]","[3, 13, 10, 3, 1]",22,9,3,0.065,0.065,0.0,[],supersize,control,-1,False,5,5,5,4,1745,True,implicit-mouselab,13,454103,supersize,6
mouselab,False,[],"[[2, 3, 5, 1, 5, 5], [3, 6, 8, 4, 6, 7], [2, 5, 5, 0, 6, 5], [3, 4, 6, 4, 5, 8], [6, 7, 1, 9, 4, 8]]","[[4, 4, 4, 4, 4, 4], [4, 4, 4, 4, 4, 4], [4, 4, 4, 4, 4, 4], [4, 4, 4, 4, 4, 4], [4, 4, 4, 4, 4, 4]]","[9, 10, 4, 1, 6]",14,10,4,0.053,0.053,0.0,[],supersize,pre-supersize,2,False,5,6,5,4,4488,True,implicit-mouselab,14,460537,supersize,6
mouselab,False,[],"[[7, 3, 3, 2, 4], [4, 7, 6, 5, 6], [2, 5, 3, 4, 2], [4, 7, 6, 2, 4], [4, 4, 7, 6, 8]]","[[4, 4, 4, 4, 4], [4, 4, 4, 4, 4], [4, 4, 4, 4, 4], [4, 4, 4, 4, 4], [4, 4, 4, 4, 4]]","[2, 7, 6, 6, 9]",8,11,1,0.054,0.054,0.0,[],supersize,control,-1,False,5,5,5,4,1793,True,implicit-mouselab,15,464507,supersize,6
mouselab,False,[],"[[7, 8, 5, 5, 3, 1], [5, 6, 3, 5, 3, 6], [5, 6, 7, 8, 3, 5], [4, 6, 5, 5, 4, 6], [7, 4, 6, 4, 7, 1]]","[[4, 4, 4, 4, 4, 4], [4, 4, 4, 4, 4, 4], [4, 4, 4, 4, 4, 4], [4, 4, 4, 4, 4, 4], [4, 4, 4, 4, 4, 4]]","[6, 3, 4, 10, 7]",10,12,3,0.052,0.052,0.0,[],supersize,post-supersize,5,False,5,6,5,4,8774,True,implicit-mouselab,16,476052,supersize,6
mouselab,False,[],"[[5, 6, 4, 5, 7, 4], [8, 5, 6, 5, 3, 2], [5, 6, 5, 5, 4, 3], [4, 6, 6, 5, 9, 5], [6, 6, 1, 5, 7, 9]]","[[4, 4, 4, 4, 4, 4], [4, 4, 4, 4, 4, 4], [4, 4, 4, 4, 4, 4], [4, 4, 4, 4, 4, 4], [4, 4, 4, 4, 4, 4]]","[1, 4, 6, 12, 7]",14,13,3,0.05,0.05,0.0,[],supersize,pre-supersize,1,False,5,6,5,4,2694,True,implicit-mouselab,17,481501,supersize,6
mouselab,False,"[25, 27]","[[6, 4, 5, 4, 5, 6], [2, 6, 5, 6, 6, 8], [3, 4, 6, 8, 5, 2], [2, 8, 4, 4, 4, 2], [6, 6, 2, 4, 4, 7]]","[[1, 1, 1, 1, 1, 1], [1, 1, 1, 1, 1, 1], [1, 1, 1, 1, 1, 1], [1, 1, 1, 1, 1, 1], [1, 0, 1, 0, 1, 1]]","[3, 3, 1, 5, 18]",24,14,1,0.061,0.06033333333333333,0.0006666666666666666,"[25, 27]",supersize,post-supersize,5,False,5,6,5,1,11310,True,implicit-mouselab,18,494746,supersize,6
mouselab,False,"[7, 10, 9, 8]","[[7, 2, 7, 8, 2], [4, 7, 5, 4, 2], [3, 8, 7, 7, 5], [6, 4, 4, 5, 6], [6, 6, 4, 3, 4]]","[[1, 1, 1, 1, 1], [1, 0, 0, 0, 0], [1, 1, 1, 1, 1], [1, 1, 1, 1, 1], [1, 1, 1, 1, 1]]","[6, 15, 1, 6, 2]",18,15,1,0.054,0.05266666666666667,0.0013333333333333333,"[7, 10, 9, 8]",supersize,control,-1,False,5,5,5,1,8682,True,implicit-mouselab,19,507222,supersize,6
mouselab,False,[19],"[[3, 3, 6, 6, 6, 6], [6, 6, 4, 8, 3, 6], [5, 2, 4, 5, 6, 7], [5, 8, 3, 2, 3, 6], [6, 7, 4, 2, 7, 2]]","[[4, 4, 4, 4, 4, 4], [4, 4, 4, 4, 4, 4], [4, 4, 4, 4, 4, 4], [4, 3, 4, 4, 4, 4], [4, 4, 4, 4, 4, 4]]","[2, 3, 6, 10, 9]",14,16,5,0.05,0.04966666666666667,0.0003333333333333333,[],supersize,post-supersize,5,True,5,6,5,4,7356,True,implicit-mouselab,20,515795,supersize,6
mouselab,False,[],"[[4, 5, 4, 5, 5, 7], [5, 4, 5, 3, 4, 5], [3, 5, 5, 6, 3, 4], [2, 7, 7, 6, 4, 7], [7, 5, 6, 3, 4, 4]]","[[1, 1, 1, 1, 1, 1], [1, 1, 1, 1, 1, 1], [1, 1, 1, 1, 1, 1], [1, 1, 1, 1, 1, 1], [1, 1, 1, 1, 1, 1]]","[5, 7, 3, 13, 2]",16,17,2,0.058,0.058,0.0,[],supersize,pre-supersize,0,False,5,6,5,1,6329,True,implicit-mouselab,21,524529,supersize,6
mouselab,False,[],"[[4, 6, 5, 5, 5], [3, 10, 4, 3, 5], [4, 5, 7, 2, 5], [2, 2, 3, 3, 6], [7, 5, 6, 5, 8]]","[[4, 4, 4, 4, 4], [4, 4, 4, 4, 4], [4, 4, 4, 4, 4], [4, 4, 4, 4, 4], [4, 4, 4, 4, 4]]","[6, 12, 5, 2, 5]",12,18,2,0.05,0.05,0.0,[],supersize,control,-1,False,5,5,5,4,4477,True,implicit-mouselab,22,530556,supersize,6
mouselab,False,"[10, 8, 7]","[[5, 4, 6, 7, 6, 4], [4, 5, 3, 7, 3, 4], [5, 3, 5, 4, 7, 6], [4, 7, 3, 6, 2, 4], [5, 3, 1, 3, 4, 4]]","[[1, 1, 1, 1, 1, 1], [1, 0, 0, 1, 0, 1], [1, 1, 1, 1, 1, 1], [1, 1, 1, 1, 1, 1], [1, 1, 1, 1, 1, 1]]","[2, 21, 2, 2, 3]",30,19,1,0.047,0.046,0.001,"[10, 8, 7]",supersize,pre-supersize,0,False,5,6,5,1,9692,True,implicit-mouselab,23,541617,supersize,6
mouselab,False,[],"[[6, 5, 1, 2, 3, 6], [4, 4, 1, 9, 7, 1], [4, 3, 8, 2, 5, 6], [6, 10, 5, 6, 3, 4], [4, 9, 3, 5, 6, 7]]","[[1, 1, 1, 1, 1, 1], [1, 1, 1, 1, 1, 1], [1, 1, 1, 1, 1, 1], [1, 1, 1, 1, 1, 1], [1, 1, 1, 1, 1, 1]]","[2, 16, 9, 2, 1]",26,20,3,0.061,0.061,0.0,[],supersize,post-supersize,5,False,5,6,5,1,3344,True,implicit-mouselab,24,547638,supersize,6
mouselab,False,"[19, 21, 23]","[[6, 3, 6, 4, 5, 5], [5, 8, 5, 5, 5, 4], [4, 4, 5, 6, 5, 2], [9, 4, 7, 4, 2, 7], [5, 4, 8, 5, 7, 7]]","[[1, 1, 1, 1, 1, 1], [1, 1, 1, 1, 1, 1], [1, 1, 1, 1, 1, 1], [1, 0, 1, 0, 1, 0], [1, 1, 1, 1, 1, 1]]","[1, 7, 4, 13, 5]",16,21,5,0.056,0.055,0.001,"[19, 21, 23]",supersize,pre-supersize,1,False,5,6,5,1,9823,True,implicit-mouselab,25,559245,supersize,6
mouselab,False,[],"[[8, 4, 3, 3, 5, 6], [8, 8, 4, 4, 6, 5], [6, 8, 5, 6, 6, 6], [5, 6, 3, 3, 4, 10], [5, 3, 6, 5, 4, 5]]","[[1, 1, 1, 1, 1, 1], [1, 1, 1, 1, 1, 1], [1, 1, 1, 1, 1, 1], [1, 1, 1, 1, 1, 1], [1, 1, 1, 1, 1, 1]]","[7, 12, 2, 8, 1]",18,22,5,0.066,0.066,0.0,[],supersize,post-supersize,5,True,5,6,5,1,5563,True,implicit-mouselab,26,566680,supersize,6
mouselab,False,[],"[[6, 5, 6, 7, 8], [5, 4, 7, 4, 5], [2, 7, 4, 5, 5], [4, 6, 2, 6, 5], [3, 5, 5, 5, 5]]","[[1, 1, 1, 1, 1], [1, 1, 1, 1, 1], [1, 1, 1, 1, 1], [1, 1, 1, 1, 1], [1, 1, 1, 1, 1]]","[12, 4, 3, 6, 5]",12,23,1,0.053,0.053,0.0,[],supersize,control,-1,False,5,5,5,1,2449,True,implicit-mouselab,27,571121,supersize,6
mouselab,False,[],"[[7, 8, 6, 6, 5, 8], [5, 3, 4, 4, 6, 2], [4, 5, 4, 8, 5, 6], [5, 3, 6, 2, 3, 7], [7, 4, 7, 5, 5, 6]]","[[4, 4, 4, 4, 4, 4], [4, 4, 4, 4, 4, 4], [4, 4, 4, 4, 4, 4], [4, 4, 4, 4, 4, 4], [4, 4, 4, 4, 4, 4]]","[1, 7, 12, 8, 2]",18,24,3,0.052,0.052,0.0,[],supersize,pre-supersize,3,True,5,6,5,4,7214,True,implicit-mouselab,28,579750,supersize,6
mouselab,False,[],"[[5, 5, 6, 4, 2, 7], [6, 7, 3, 5, 4, 3], [6, 4, 5, 5, 8, 6], [2, 5, 5, 3, 7, 6], [5, 2, 3, 7, 7, 3]]","[[4, 4, 4, 4, 4, 4], [4, 4, 4, 4, 4, 4], [4, 4, 4, 4, 4, 4], [4, 4, 4, 4, 4, 4], [4, 4, 4, 4, 4, 4]]","[1, 6, 7, 10, 6]",10,25,1,0.046,0.046,0.0,[],supersize,post-supersize,5,False,5,6,5,4,4922,True,implicit-mouselab,29,586151,supersize,6
mouselab,False,[],"[[3, 2, 5, 5, 6, 7], [5, 9, 3, 2, 7, 4], [5, 3, 2, 6, 4, 4], [4, 3, 4, 5, 6, 6], [4, 5, 5, 6, 5, 6]]","[[4, 4, 4, 4, 4, 4], [4, 4, 4, 4, 4, 4], [4, 4, 4, 4, 4, 4], [4, 4, 4, 4, 4, 4], [4, 4, 4, 4, 4, 4]]","[1, 16, 1, 2, 10]",28,26,2,0.038,0.038,0.0,[],supersize,pre-supersize,3,False,5,6,5,4,4628,True,implicit-mouselab,30,592453,supersize,6
mouselab,False,[],"[[4, 2, 6, 5, 4, 4], [6, 7, 7, 3, 5, 4], [8, 6, 2, 5, 7, 7], [5, 4, 7, 3, 5, 5], [3, 7, 7, 8, 4, 8]]","[[4, 4, 4, 4, 4, 4], [4, 4, 4, 4, 4, 4], [4, 4, 4, 4, 4, 4], [4, 4, 4, 4, 4, 4], [4, 4, 4, 4, 4, 4]]","[9, 10, 2, 5, 4]",14,27,1,0.049,0.049,0.0,[],supersize,pre-supersize,1,True,5,6,5,4,3005,True,implicit-mouselab,31,597766,supersize,6
mouselab,False,[3],"[[7, 3, 5, 4, 5, 7], [4, 6, 4, 6, 5, 3], [5, 4, 5, 5, 6, 7], [6, 7, 4, 6, 4, 4], [6, 3, 0, 7, 7, 4]]","[[1, 1, 1, 0, 1, 1], [1, 1, 1, 1, 1, 1], [1, 1, 1, 1, 1, 1], [1, 1, 1, 1, 1, 1], [1, 1, 1, 1, 1, 1]]","[8, 4, 3, 3, 12]",16,28,5,0.05,0.04966666666666667,0.0003333333333333333,[3],supersize,post-supersize,5,True,5,6,5,1,7228,True,implicit-mouselab,32,609856,supersize,6
mouselab,False,[],"[[3, 7, 9, 5, 7], [6, 5, 5, 6, 6], [7, 4, 2, 6, 4], [3, 1, 7, 4, 5], [4, 7, 6, 6, 4]]","[[1, 1, 1, 1, 1], [1, 1, 1, 1, 1], [1, 1, 1, 1, 1], [1, 1, 1, 1, 1], [1, 1, 1, 1, 1]]","[6, 7, 5, 6, 6]",2,29,3,0.054,0.054,0.0,[],supersize,control,-1,False,5,5,5,1,5448,True,implicit-mouselab,33,617260,supersize,6
mouselab,False,[],"[[8, 5, 2, 4, 6], [3, 7, 4, 7, 7], [3, 8, 4, 7, 7], [6, 4, 3, 4, 6], [8, 4, 4, 6, 5]]","[[1, 1, 1, 1, 1], [1, 1, 1, 1, 1], [1, 1, 1, 1, 1], [1, 1, 1, 1, 1], [1, 1, 1, 1, 1]]","[5, 10, 5, 3, 7]",10,30,1,0.058,0.058,0.0,[],supersize,control,-1,False,5,5,5,1,2878,True,implicit-mouselab,34,622257,supersize,6
mouselab,False,[21],"[[4, 6, 5, 5, 4, 7], [7, 3, 3, 6, 9, 5], [5, 5, 6, 7, 1, 4], [6, 6, 5, 8, 5, 9], [7, 2, 2, 6, 6, 7]]","[[1, 1, 1, 1, 1, 1], [1, 1, 1, 1, 1, 1], [1, 1, 1, 1, 1, 1], [1, 1, 1, 0, 1, 1], [1, 1, 1, 1, 1, 1]]","[4, 9, 2, 14, 1]",22,31,5,0.071,0.07066666666666666,0.0003333333333333333,[21],supersize,post-supersize,5,True,5,6,5,1,8580,True,implicit-mouselab,35,634261,supersize,6
mouselab,False,[],"[[6, 4, 5, 4, 1], [5, 2, 4, 6, 6], [5, 4, 5, 4, 5], [10, 4, 5, 4, 6], [7, 5, 5, 3, 4]]","[[4, 4, 4, 4, 4], [4, 4, 4, 4, 4], [4, 4, 4, 4, 4], [4, 4, 4, 4, 4], [4, 4, 4, 4, 4]]","[12, 8, 4, 2, 4]",16,32,1,0.036,0.036,0.0,[],supersize,control,-1,False,5,5,5,4,5859,True,implicit-mouselab,36,641722,supersize,6
mouselab,True,[],"[[6, 3, 3, 7, 6], [4, 5, 4, 3, 4], [9, 5, 4, 1, 5], [4, 4, 6, 5, 1], [3, 6, 2, 6, 5]]","[[1, 1, 1, 1, 1], [1, 1, 1, 1, 1], [1, 1, 1, 1, 1], [1, 1, 1, 1, 1], [1, 1, 1, 1, 1]]","[13, 1, 3, 9, 4]",20,1,2,0.039,0.039,0.0,[],supersize,control,-1,False,5,5,5,1,7476,True,implicit-mouselab,4,182755,supersize,7
mouselab,True,[],"[[3, 8, 7, 8, 4], [3, 3, 7, 2, 7], [3, 7, 7, 6, 5], [4, 3, 5, 2, 3], [3, 6, 9, 4, 6]]","[[4, 4, 4, 4, 4], [4, 4, 4, 4, 4], [4, 4, 4, 4, 4], [4, 4, 4, 4, 4], [4, 4, 4, 4, 4]]","[5, 4, 10, 2, 9]",14,2,4,0.053,0.053,0.0,[],supersize,control,-1,False,5,5,5,4,3287,True,implicit-mouselab,5,198225,supersize,7
mouselab,False,[],"[[3, 5, 5, 7, 9], [6, 4, 7, 5, 4], [3, 7, 3, 8, 2], [4, 5, 9, 7, 6], [7, 5, 4, 5, 8]]","[[1, 1, 1, 1, 1], [1, 1, 1, 1, 1], [1, 1, 1, 1, 1], [1, 1, 1, 1, 1], [1, 1, 1, 1, 1]]","[3, 8, 8, 4, 7]",10,3,0,0.049,0.049,0.0,[],supersize,control,-1,False,5,5,5,1,4767,True,implicit-mouselab,7,213682,supersize,7
mouselab,False,[],"[[4, 7, 4, 8, 6, 3], [1, 3, 6, 5, 5, 2], [7, 9, 6, 4, 6, 5], [8, 7, 4, 8, 4, 5], [5, 7, 5, 7, 7, 3]]","[[4, 4, 4, 4, 4, 4], [4, 4, 4, 4, 4, 4], [4, 4, 4, 4, 4, 4], [4, 4, 4, 4, 4, 4], [4, 4, 4, 4, 4, 4]]","[15, 3, 2, 2, 8]",22,4,4,0.06,0.06,0.0,[],supersize,post-supersize,5,False,5,6,5,4,13699,True,implicit-mouselab,8,235599,supersize,7
mouselab,False,[],"[[5, 5, 9, 5, 3, 6], [10, 6, 6, 3, 7, 8], [5, 4, 5, 7, 6, 3], [3, 7, 5, 3, 6, 6], [6, 3, 4, 4, 5, 5]]","[[4, 4, 4, 4, 4, 4], [4, 4, 4, 4, 4, 4], [4, 4, 4, 4, 4, 4], [4, 4, 4, 4, 4, 4], [4, 4, 4, 4, 4, 4]]","[2, 10, 13, 4, 1]",22,5,3,0.049,0.049,0.0,[],supersize,post-supersize,5,False,5,6,5,4,12829,True,implicit-mouselab,9,253287,supersize,7
mouselab,False,"[9, 19]","[[6, 4, 5, 6, 4, 6], [7, 7, 4, 2, 5, 5], [5, 7, 5, 7, 9, 7], [5, 6, 7, 5, 1, 6], [2, 5, 6, 7, 7, 8]]","[[1, 1, 1, 1, 1, 1], [1, 1, 1, 0, 1, 1], [1, 1, 1, 1, 1, 1], [1, 0, 1, 1, 1, 1], [1, 1, 1, 1, 1, 1]]","[13, 2, 8, 2, 5]",18,6,2,0.052,0.05133333333333333,0.0006666666666666666,"[9, 19]",supersize,pre-supersize,3,False,5,6,5,1,15518,True,implicit-mouselab,10,280614,supersize,7
mouselab,False,[19],"[[5, 5, 6, 7, 0, 3], [6, 7, 5, 5, 6, 5], [4, 3, 4, 6, 5, 5], [4, 5, 4, 4, 3, 5], [4, 8, 7, 6, 8, 8]]","[[1, 1, 1, 1, 1, 1], [1, 1, 1, 1, 1, 1], [1, 1, 1, 1, 1, 1], [1, 0, 1, 1, 1, 1], [1, 1, 1, 1, 1, 1]]","[5, 3, 5, 14, 3]",16,7,2,0.047,0.04666666666666667,0.0003333333333333333,[19],supersize,pre-supersize,2,True,5,6,5,1,11624,True,implicit-mouselab,11,294658,supersize,7
mouselab,False,"[9, 9]","[[5, 2, 6, 4, 6, 4], [4, 2, 4, 5, 6, 7], [4, 6, 4, 8, 6, 5], [1, 1, 2, 5, 3, 7], [5, 5, 4, 9, 6, 5]]","[[4, 4, 4, 4, 4, 4], [4, 4, 4, 2, 4, 4], [4, 4, 4, 4, 4, 4], [4, 4, 4, 4, 4, 4], [4, 4, 4, 4, 4, 4]]","[4, 5, 3, 1, 17]",22,8,4,0.059,0.05833333333333333,0.0006666666666666666,[],supersize,post-supersize,5,False,5,6,5,4,6858,True,implicit-mouselab,12,307034,supersize,7
mouselab,False,[],"[[6, 4, 7, 6, 4], [2, 1, 4, 5, 4], [7, 5, 6, 4, 5], [1, 5, 7, 7, 3], [6, 6, 4, 5, 5]]","[[4, 4, 4, 4, 4], [4, 4, 4, 4, 4], [4, 4, 4, 4, 4], [4, 4, 4, 4, 4], [4, 4, 4, 4, 4]]","[6, 6, 1, 6, 11]",10,9,0,0.042,0.042,0.0,[],supersize,control,-1,False,5,5,5,4,3829,True,implicit-mouselab,13,312991,supersize,7
mouselab,False,"[17, 27, 26]","[[3, 5, 1, 7, 5, 1], [3, 6, 6, 3, 5, 5], [7, 5, 6, 4, 5, 3], [5, 8, 5, 2, 6, 1], [5, 4, 4, 5, 5, 5]]","[[1, 1, 1, 1, 1, 1], [1, 1, 1, 1, 1, 1], [1, 1, 1, 1, 1, 0], [1, 1, 1, 1, 1, 1], [1, 1, 0, 0, 1, 1]]","[7, 3, 2, 2, 16]",22,10,1,0.048,0.047,0.001,"[17, 27, 26]",supersize,post-supersize,5,False,5,6,5,1,11620,True,implicit-mouselab,14,326551,supersize,7
mouselab,False,[],"[[4, 6, 6, 6, 6], [6, 7, 3, 6, 4], [4, 3, 4, 7, 5], [7, 5, 7, 2, 4], [8, 4, 3, 4, 3]]","[[1, 1, 1, 1, 1], [1, 1, 1, 1, 1], [1, 1, 1, 1, 1], [1, 1, 1, 1, 1], [1, 1, 1, 1, 1]]","[12, 1, 2, 13, 2]",26,11,1,0.053,0.053,0.0,[],supersize,control,-1,False,5,5,5,1,1499,True,implicit-mouselab,15,329335,supersize,7
mouselab,False,[],"[[6, 8, 3, 7, 5, 5], [2, 5, 4, 8, 6, 8], [7, 9, 4, 4, 7, 7], [8, 6, 7, 6, 5, 2], [4, 4, 3, 1, 2, 3]]","[[4, 4, 4, 4, 4, 4], [4, 4, 4, 4, 4, 4], [4, 4, 4, 4, 4, 4], [4, 4, 4, 4, 4, 4], [4, 4, 4, 4, 4, 4]]","[7, 3, 4, 4, 12]",14,12,4,0.042,0.042,0.0,[],supersize,pre-supersize,2,False,5,6,5,4,1407,True,implicit-mouselab,16,332155,supersize,7
mouselab,False,[],"[[8, 8, 5, 6, 5, 4], [6, 7, 8, 4, 5, 3], [9, 1, 5, 7, 2, 8], [8, 2, 5, 5, 8, 3], [6, 5, 4, 5, 4, 7]]","[[4, 4, 4, 4, 4, 4], [4, 4, 4, 4, 4, 4], [4, 4, 4, 4, 4, 4], [4, 4, 4, 4, 4, 4], [4, 4, 4, 4, 4, 4]]","[3, 5, 2, 7, 13]",16,13,5,0.052,0.052,0.0,[],supersize,pre-supersize,4,False,5,6,5,4,1844,True,implicit-mouselab,17,335521,supersize,7
mouselab,False,[],"[[6, 3, 1, 6, 6], [6, 7, 5, 4, 2], [5, 5, 6, 4, 5], [5, 4, 6, 2, 5], [6, 7, 4, 8, 3]]","[[1, 1, 1, 1, 1], [1, 1, 1, 1, 1], [1, 1, 1, 1, 1], [1, 1, 1, 1, 1], [1, 1, 1, 1, 1]]","[3, 4, 12, 10, 1]",20,14,1,0.048,0.048,0.0,[],supersize,control,-1,False,5,5,5,1,1652,True,implicit-mouselab,18,338514,supersize,7
mouselab,False,[],"[[6, 6, 4, 7, 5], [5, 3, 5, 6, 7], [6, 4, 5, 7, 4], [6, 4, 5, 4, 6], [7, 2, 8, 8, 4]]","[[4, 4, 4, 4, 4], [4, 4, 4, 4, 4], [4, 4, 4, 4, 4], [4, 4, 4, 4, 4], [4, 4, 4, 4, 4]]","[13, 1, 5, 3, 8]",18,15,0,0.062,0.062,0.0,[],supersize,control,-1,False,5,5,5,4,1511,True,implicit-mouselab,19,342241,supersize,7
mouselab,False,[],"[[4, 4, 4, 5, 9], [6, 5, 3, 7, 4], [2, 6, 8, 6, 5], [6, 7, 4, 4, 3], [7, 6, 4, 0, 6]]","[[4, 4, 4, 4, 4], [4, 4, 4, 4, 4], [4, 4, 4, 4, 4], [4, 4, 4, 4, 4], [4, 4, 4, 4, 4]]","[3, 1, 5, 13, 8]",18,16,2,0.046,0.046,0.0,[],supersize,control,-1,False,5,5,5,4,1359,True,implicit-mouselab,20,346465,supersize,7
mouselab,False,"[14, 7, 12, 0, 24, 25, 26]","[[4, 6, 4, 4, 4], [2, 7, 4, 5, 4], [6, 5, 6, 4, 7], [4, 2, 6, 5, 5], [5, 5, 4, 7, 6]]","[[0, 1, 1, 1, 1], [1, 0, 1, 1, 1], [0, 1, 0, 1, 1], [1, 1, 1, 1, 1], [0, 0, 0, 1, 1]]","[9, 2, 14, 4, 1]",22,17,3,0.043,0.04066666666666666,0.0023333333333333335,"[14, 7, 12, 0, 24, 25, 26]",supersize,control,-1,False,5,5,5,1,10795,True,implicit-mouselab,21,361409,supersize,7
mouselab,False,[29],"[[7, 6, 6, 6, 7, 6], [2, 5, 3, 4, 2, 5], [5, 3, 5, 6, 5, 4], [6, 6, 7, 2, 4, 7], [7, 4, 7, 2, 7, 6]]","[[1, 1, 1, 1, 1, 1], [1, 1, 1, 1, 1, 1], [1, 1, 1, 1, 1, 1], [1, 1, 1, 1, 1, 1], [1, 1, 1, 1, 1, 0]]","[2, 4, 14, 9, 1]",22,18,5,0.052,0.051666666666666666,0.0003333333333333333,[29],supersize,post-supersize,5,True,5,6,5,1,10091,True,implicit-mouselab,22,373282,supersize,7
mouselab,False,[],"[[7, 7, 6, 7, 7, 7], [2, 4, 5, 7, 4, 7], [5, 3, 6, 3, 5, 4], [6, 5, 7, 4, 4, 6], [7, 1, 7, 5, 6, 4]]","[[1, 1, 1, 1, 1, 1], [1, 1, 1, 1, 1, 1], [1, 1, 1, 1, 1, 1], [1, 1, 1, 1, 1, 1], [1, 1, 1, 1, 1, 1]]","[4, 10, 3, 12, 1]",20,19,1,0.046,0.046,0.0,[],supersize,pre-supersize,3,False,5,6,5,1,2265,True,implicit-mouselab,23,377375,supersize,7
mouselab,False,[],"[[4, 1, 5, 1, 7], [4, 5, 5, 4, 6], [5, 4, 4, 2, 7], [5, 5, 5, 4, 8], [5, 2, 7, 5, 7]]","[[4, 4, 4, 4, 4], [4, 4, 4, 4, 4], [4, 4, 4, 4, 4], [4, 4, 4, 4, 4], [4, 4, 4, 4, 4]]","[7, 2, 8, 4, 9]",12,20,2,0.053,0.053,0.0,[],supersize,control,-1,False,5,5,5,4,913,True,implicit-mouselab,24,379366,supersize,7
mouselab,False,[],"[[4, 3, 6, 2, 3, 3], [8, 4, 6, 4, 6, 4], [4, 5, 7, 4, 8, 4], [4, 3, 3, 7, 8, 6], [5, 6, 7, 6, 5, 8]]","[[4, 4, 4, 4, 4, 4], [4, 4, 4, 4, 4, 4], [4, 4, 4, 4, 4, 4], [4, 4, 4, 4, 4, 4], [4, 4, 4, 4, 4, 4]]","[6, 10, 9, 2, 3]",14,21,4,0.06,0.06,0.0,[],supersize,post-supersize,5,False,5,6,5,4,3210,True,implicit-mouselab,25,384075,supersize,7
mouselab,False,[],"[[8, 6, 4, 6, 4, 7], [6, 6, 6, 5, 4, 7], [4, 4, 6, 5, 4, 4], [3, 3, 5, 7, 6, 3], [4, 5, 5, 5, 7, 3]]","[[4, 4, 4, 4, 4, 4], [4, 4, 4, 4, 4, 4], [4, 4, 4, 4, 4, 4], [4, 4, 4, 4, 4, 4], [4, 4, 4, 4, 4, 4]]","[12, 3, 9, 4, 2]",18,22,2,0.05,0.05,0.0,[],supersize,pre-supersize,1,False,5,6,5,4,1499,True,implicit-mouselab,26,386570,supersize,7
mouselab,False,[],"[[3, 8, 6, 4, 8, 2], [6, 3, 5, 7, 5, 4], [4, 1, 3, 8, 5, 5], [6, 3, 3, 4, 3, 5], [8, 4, 7, 7, 5, 4]]","[[4, 4, 4, 4, 4, 4], [4, 4, 4, 4, 4, 4], [4, 4, 4, 4, 4, 4], [4, 4, 4, 4, 4, 4], [4, 4, 4, 4, 4, 4]]","[1, 7, 12, 5, 5]",14,23,4,0.048,0.048,0.0,[],supersize,post-supersize,5,False,5,6,5,4,3862,True,implicit-mouselab,27,391589,supersize,7
mouselab,False,[],"[[5, 3, 3, 7, 8], [7, 6, 5, 6, 3], [5, 4, 3, 4, 5], [5, 4, 6, 6, 6], [3, 6, 4, 4, 6]]","[[1, 1, 1, 1, 1], [1, 1, 1, 1, 1], [1, 1, 1, 1, 1], [1, 1, 1, 1, 1], [1, 1, 1, 1, 1]]","[1, 6, 8, 11, 4]",14,24,1,0.046,0.046,0.0,[],supersize,control,-1,False,5,5,5,1,966,True,implicit-mouselab,28,394900,supersize,7
mouselab,False,[12],"[[6, 5, 7, 5, 7, 6], [6, 2, 4, 3, 6, 8], [4, 10, 5, 4, 5, 8], [4, 6, 4, 2, 4, 7], [4, 4, 8, 3, 5, 4]]","[[1, 1, 1, 1, 1, 1], [1, 1, 1, 1, 1, 1], [0, 1, 1, 1, 1, 1], [1, 1, 1, 1, 1, 1], [1, 1, 1, 1, 1, 1]]","[5, 1, 5, 11, 8]",14,25,1,0.058,0.05766666666666667,0.0003333333333333333,[12],supersize,post-supersize,5,False,5,6,5,1,7026,True,implicit-mouselab,29,404229,supersize,7
mouselab,False,[],"[[6, 5, 5, 5, 7, 7], [7, 6, 5, 6, 3, 5], [10, 2, 4, 3, 6, 4], [6, 6, 6, 3, 5, 2], [5, 6, 6, 5, 5, 6]]","[[4, 4, 4, 4, 4, 4], [4, 4, 4, 4, 4, 4], [4, 4, 4, 4, 4, 4], [4, 4, 4, 4, 4, 4], [4, 4, 4, 4, 4, 4]]","[11, 5, 3, 5, 6]",10,26,2,0.053,0.053,0.0,[],supersize,pre-supersize,4,False,5,6,5,4,1189,True,implicit-mouselab,30,406816,supersize,7
mouselab,False,[],"[[4, 5, 6, 5, 4, 6], [6, 5, 4, 6, 4, 4], [6, 1, 5, 5, 4, 6], [6, 7, 6, 3, 6, 2], [4, 6, 4, 5, 6, 2]]","[[1, 1, 1, 1, 1, 1], [1, 1, 1, 1, 1, 1], [1, 1, 1, 1, 1, 1], [1, 1, 1, 1, 1, 1], [1, 1, 1, 1, 1, 1]]","[2, 8, 4, 15, 1]",22,27,3,0.043,0.043,0.0,[],supersize,pre-supersize,0,False,5,6,5,1,1001,True,implicit-mouselab,31,409828,supersize,7
mouselab,False,[],"[[8, 4, 8, 7, 3, 7], [5, 6, 3, 6, 5, 4], [5, 5, 3, 6, 5, 4], [6, 5, 5, 2, 3, 4], [6, 9, 5, 8, 3, 3]]","[[4, 4, 4, 4, 4, 4], [4, 4, 4, 4, 4, 4], [4, 4, 4, 4, 4, 4], [4, 4, 4, 4, 4, 4], [4, 4, 4, 4, 4, 4]]","[2, 7, 16, 4, 1]",22,28,2,0.037,0.037,0.0,[],supersize,pre-supersize,3,False,5,6,5,4,1387,True,implicit-mouselab,32,412420,supersize,7
mouselab,False,[],"[[1, 3, 4, 7, 1], [4, 6, 3, 8, 3], [8, 6, 4, 6, 5], [5, 7, 2, 6, 4], [6, 3, 4, 7, 6]]","[[4, 4, 4, 4, 4], [4, 4, 4, 4, 4], [4, 4, 4, 4, 4], [4, 4, 4, 4, 4], [4, 4, 4, 4, 4]]","[4, 2, 1, 3, 20]",28,29,3,0.069,0.069,0.0,[],supersize,control,-1,False,5,5,5,4,1422,True,implicit-mouselab,33,414839,supersize,7
mouselab,False,[],"[[4, 5, 8, 7, 8, 3], [9, 6, 7, 4, 7, 4], [6, 7, 5, 6, 3, 4], [3, 8, 5, 3, 7, 3], [4, 3, 7, 5, 5, 6]]","[[1, 1, 1, 1, 1, 1], [1, 1, 1, 1, 1, 1], [1, 1, 1, 1, 1, 1], [1, 1, 1, 1, 1, 1], [1, 1, 1, 1, 1, 1]]","[2, 10, 7, 5, 6]",10,30,2,0.063,0.063,0.0,[],supersize,pre-supersize,4,False,5,6,5,1,2309,True,implicit-mouselab,34,418518,supersize,7
mouselab,False,[],"[[7, 10, 2, 4, 2, 7], [4, 3, 5, 4, 10, 8], [6, 2, 2, 4, 2, 2], [5, 5, 2, 4, 2, 5], [6, 4, 6, 4, 3, 4]]","[[1, 1, 1, 1, 1, 1], [1, 1, 1, 1, 1, 1], [1, 1, 1, 1, 1, 1], [1, 1, 1, 1, 1, 1], [1, 1, 1, 1, 1, 1]]","[1, 7, 7, 7, 8]",10,31,4,0.041,0.041,0.0,[],supersize,post-supersize,5,False,5,6,5,1,3247,True,implicit-mouselab,35,423272,supersize,7
mouselab,False,[],"[[1, 6, 2, 2, 6, 5], [4, 2, 3, 5, 6, 6], [6, 6, 7, 7, 3, 1], [4, 5, 5, 5, 8, 4], [5, 2, 7, 6, 7, 4]]","[[1, 1, 1, 1, 1, 1], [1, 1, 1, 1, 1, 1], [1, 1, 1, 1, 1, 1], [1, 1, 1, 1, 1, 1], [1, 1, 1, 1, 1, 1]]","[1, 8, 11, 3, 7]",16,32,2,0.056,0.056,0.0,[],supersize,post-supersize,5,False,5,6,5,1,2270,True,implicit-mouselab,36,426758,supersize,7
mouselab,True,"[7, 20, 9, 22, 1, 16, 4]","[[6, 4, 5, 4, 8], [6, 9, 4, 4, 3], [5, 6, 6, 5, 3], [7, 3, 6, 3, 9], [2, 3, 8, 5, 3]]","[[1, 0, 1, 1, 0], [1, 0, 1, 0, 1], [1, 1, 1, 1, 0], [1, 1, 0, 1, 0], [1, 1, 1, 1, 1]]","[9, 2, 3, 12, 4]",18,1,4,0.069,0.06666666666666667,0.0023333333333333335,"[7, 20, 9, 22, 1, 16, 4]",supersize,control,-1,False,5,5,5,1,9764,True,implicit-mouselab,4,97968,supersize,8
mouselab,True,"[7, 7, 7, 7, 21, 21, 21, 21]","[[5, 4, 3, 8, 3], [9, 2, 6, 1, 5], [4, 3, 6, 6, 4], [5, 3, 8, 6, 3], [4, 4, 6, 5, 6]]","[[4, 4, 4, 4, 4], [4, 0, 4, 4, 4], [4, 4, 4, 4, 4], [4, 4, 4, 0, 4], [4, 4, 4, 4, 4]]","[7, 5, 3, 10, 5]",10,2,3,0.055,0.052333333333333336,0.0026666666666666666,"[7, 21]",supersize,control,-1,False,5,5,5,4,5273,True,implicit-mouselab,5,105526,supersize,8
mouselab,False,"[6, 13, 8, 21, 10, 23]","[[6, 5, 6, 5, 4, 4], [4, 6, 2, 5, 5, 7], [8, 6, 3, 3, 3, 6], [6, 7, 9, 3, 3, 5], [5, 6, 5, 5, 6, 5]]","[[1, 1, 1, 1, 1, 1], [0, 1, 0, 1, 0, 1], [1, 0, 1, 1, 1, 1], [1, 1, 1, 0, 1, 0], [1, 1, 1, 1, 1, 1]]","[15, 1, 6, 4, 4]",18,3,5,0.048,0.046,0.002,"[6, 13, 8, 21, 10, 23]",supersize,post-supersize,5,True,5,6,5,1,12255,True,implicit-mouselab,7,123568,supersize,8
mouselab,False,[],"[[7, 6, 6, 6, 6, 4], [4, 3, 5, 3, 6, 9], [2, 6, 5, 6, 6, 5], [4, 6, 2, 6, 6, 3], [3, 6, 8, 8, 4, 5]]","[[4, 4, 4, 4, 4, 4], [4, 4, 4, 4, 4, 4], [4, 4, 4, 4, 4, 4], [4, 4, 4, 4, 4, 4], [4, 4, 4, 4, 4, 4]]","[4, 4, 9, 10, 3]",14,4,4,0.058,0.058,0.0,[],supersize,pre-supersize,4,True,5,6,5,4,4886,True,implicit-mouselab,8,136056,supersize,8
mouselab,False,"[19, 19, 19, 19]","[[6, 4, 6, 1, 3, 5], [5, 7, 5, 4, 7, 5], [7, 4, 4, 4, 3, 4], [8, 8, 8, 6, 6, 6], [4, 3, 4, 7, 5, 5]]","[[4, 4, 4, 4, 4, 4], [4, 4, 4, 4, 4, 4], [4, 4, 4, 4, 4, 4], [4, 0, 4, 4, 4, 4], [4, 4, 4, 4, 4, 4]]","[5, 15, 6, 2, 2]",18,5,1,0.057,0.05566666666666667,0.0013333333333333333,[19],supersize,pre-supersize,5,False,5,6,5,4,5749,True,implicit-mouselab,9,143555,supersize,8
mouselab,False,"[6, 6, 6, 6, 20, 20, 20, 20]","[[7, 4, 6, 6, 4, 4], [5, 3, 3, 2, 4, 8], [6, 5, 2, 5, 8, 3], [7, 3, 6, 5, 6, 6], [4, 7, 2, 7, 4, 8]]","[[4, 4, 4, 4, 4, 4], [0, 4, 4, 4, 4, 4], [4, 4, 4, 4, 4, 4], [4, 4, 0, 4, 4, 4], [4, 4, 4, 4, 4, 4]]","[2, 3, 6, 1, 18]",24,6,5,0.067,0.06433333333333334,0.0026666666666666666,"[6, 20]",supersize,post-supersize,5,True,5,6,5,4,6833,True,implicit-mouselab,10,152447,supersize,8
mouselab,False,"[13, 6, 9, 11, 17]","[[4, 4, 5, 6, 7, 4], [3, 4, 6, 4, 5, 3], [6, 4, 5, 3, 5, 7], [6, 5, 6, 6, 4, 3], [5, 8, 6, 7, 6, 8]]","[[1, 1, 1, 1, 1, 1], [0, 1, 1, 0, 1, 0], [1, 0, 1, 1, 1, 0], [1, 1, 1, 1, 1, 1], [1, 1, 1, 1, 1, 1]]","[1, 9, 13, 3, 4]",20,7,5,0.054,0.052333333333333336,0.0016666666666666668,"[13, 6, 9, 11, 17]",supersize,pre-supersize,5,True,5,6,5,1,5671,True,implicit-mouselab,11,159463,supersize,8
