type,is_practice,original_item_cost,sale_item_cost,click_values,payoff_matrix,cost_matrix,weights,weights_deviation,trial_num,selected_option,gross_earnings,net_earnings,click_cost,uncovered_values,num_values_revealed,num_options,num_features,reaction_time,points_click_cost,points_action_utility,points_metalevel_reward,sale_type,is_control,sale_index,trial_type,trial_index,time_elapsed,highlight_option_value,maximized_highlighted_option,highlight_num_clicks,highlight_weight,num_highlight_reveals,participant_id
traffic-light-mouselab,True,3,1,"[1, 0]","[[7, 6, 2, 5, 6], [5, 5, 7, 6, 4], [7, 6, 8, 6, 6]]","[[0, 0, 1, 1, 1], [3, 3, 3, 3, 3], [3, 3, 3, 3, 3]]","[18, 2, 10]",16,1,0,0.069,0.06833333333333334,0.0006666666666666666,"[1, 0]",2,5,3,14538,2,206,204,hi,False,0,traffic-light-mouselab,4,296669,7,1,2,18,2,0
traffic-light-mouselab,True,3,1,[],"[[9, 5, 4, 7, 4], [7, 4, 5, 4, 4], [4, 7, 6, 4, 5]]","[[3, 3, 3, 3, 3], [3, 3, 3, 3, 3], [3, 3, 3, 3, 3]]","[10, 18, 2]",16,2,2,0.047,0.047,0.0,[],0,5,3,3695,0,142,142,low,True,2,traffic-light-mouselab,5,304690,6,0,0,2,0,0
traffic-light-mouselab,False,3,1,"[10, 13, 12, 11]","[[4, 5, 6, 2, 7], [8, 4, 5, 8, 3], [4, 7, 6, 6, 5]]","[[3, 3, 3, 3, 3], [3, 3, 3, 3, 3], [0, 0, 0, 0, 1]]","[18, 2, 10]",16,3,1,0.056,0.05466666666666667,0.0013333333333333333,"[10, 13, 12, 11]",4,5,3,7238,4,168,164,medium,False,2,traffic-light-mouselab,7,317121,7,1,4,10,4,0
traffic-light-mouselab,False,3,1,"[10, 14, 12, 13, 11]","[[2, 5, 7, 7, 6], [4, 4, 9, 6, 5], [6, 2, 4, 3, 4]]","[[3, 3, 3, 3, 3], [3, 3, 3, 3, 3], [0, 0, 0, 0, 0]]","[18, 10, 2]",16,4,0,0.029,0.027333333333333334,0.0016666666666666668,"[10, 14, 12, 13, 11]",5,5,3,8084,5,88,83,low,False,2,traffic-light-mouselab,8,326651,6,1,5,2,5,0
traffic-light-mouselab,False,3,1,[],"[[6, 3, 5, 6, 6], [4, 5, 7, 3, 7], [7, 4, 6, 5, 4]]","[[3, 3, 3, 3, 3], [3, 3, 3, 3, 3], [3, 3, 3, 3, 3]]","[10, 18, 2]",16,5,2,0.063,0.063,0.0,[],0,5,3,2971,0,188,188,hi,True,1,traffic-light-mouselab,9,331153,7,1,0,18,0,0
traffic-light-mouselab,False,3,1,"[12, 10, 14]","[[8, 7, 4, 5, 4], [4, 4, 6, 5, 3], [4, 5, 4, 2, 7]]","[[3, 3, 3, 3, 3], [3, 3, 3, 3, 3], [0, 1, 0, 1, 0]]","[18, 2, 10]",16,6,4,0.049,0.048,0.001,"[12, 10, 14]",3,5,3,4987,3,148,145,medium,False,2,traffic-light-mouselab,10,338461,7,1,3,10,3,0
traffic-light-mouselab,False,3,1,[],"[[5, 5, 7, 7, 6], [5, 2, 5, 3, 2], [5, 5, 7, 4, 3]]","[[3, 3, 3, 3, 3], [3, 3, 3, 3, 3], [3, 3, 3, 3, 3]]","[2, 10, 18]",16,7,3,0.039,0.039,0.0,[],0,5,3,2256,0,116,116,medium,True,1,traffic-light-mouselab,11,342418,3,0,0,10,0,0
traffic-light-mouselab,False,3,1,[],"[[3, 5, 8, 4, 7], [5, 4, 3, 6, 4], [8, 6, 3, 4, 6]]","[[3, 3, 3, 3, 3], [3, 3, 3, 3, 3], [3, 3, 3, 3, 3]]","[2, 18, 10]",16,8,1,0.047,0.047,0.0,[],0,5,3,3369,0,142,142,medium,True,2,traffic-light-mouselab,12,347601,6,0,0,10,0,0
traffic-light-mouselab,False,3,1,"[5, 7, 8, 9, 6]","[[6, 3, 7, 5, 7], [0, 0, 6, 5, 5], [1, 6, 5, 5, 5]]","[[3, 3, 3, 3, 3], [0, 0, 0, 0, 0], [3, 3, 3, 3, 3]]","[10, 18, 2]",16,9,2,0.063,0.06133333333333334,0.0016666666666666668,"[5, 7, 8, 9, 6]",5,5,3,5389,5,188,183,hi,False,1,traffic-light-mouselab,13,354896,6,1,5,18,5,0
traffic-light-mouselab,False,3,1,[1],"[[6, 7, 5, 1, 8], [4, 6, 7, 6, 5], [4, 3, 2, 3, 2]]","[[1, 0, 1, 1, 1], [3, 3, 3, 3, 3], [3, 3, 3, 3, 3]]","[10, 2, 18]",16,10,1,0.045,0.04466666666666667,0.0003333333333333333,[1],1,5,3,2911,1,136,135,medium,False,0,traffic-light-mouselab,14,359476,7,0,1,10,1,0
traffic-light-mouselab,False,3,1,[],"[[6, 5, 6, 4, 7], [4, 3, 4, 5, 6], [7, 4, 8, 1, 7]]","[[3, 3, 3, 3, 3], [3, 3, 3, 3, 3], [3, 3, 3, 3, 3]]","[18, 2, 10]",16,11,2,0.065,0.065,0.0,[],0,5,3,2676,0,196,196,medium,True,2,traffic-light-mouselab,15,363953,8,1,0,10,0,0
traffic-light-mouselab,False,3,1,[],"[[6, 6, 7, 3, 6], [4, 3, 5, 3, 4], [6, 0, 4, 7, 7]]","[[3, 3, 3, 3, 3], [3, 3, 3, 3, 3], [1, 1, 1, 1, 1]]","[10, 18, 2]",16,12,4,0.049,0.049,0.0,[],0,5,3,2830,0,146,146,low,False,2,traffic-light-mouselab,16,369481,7,1,0,2,0,0
traffic-light-mouselab,False,3,1,[],"[[6, 7, 4, 5, 2], [5, 3, 3, 8, 6], [3, 7, 5, 7, 3]]","[[3, 3, 3, 3, 3], [3, 3, 3, 3, 3], [3, 3, 3, 3, 3]]","[10, 2, 18]",16,13,0,0.041,0.041,0.0,[],0,5,3,2212,0,124,124,low,True,1,traffic-light-mouselab,17,373345,5,0,0,2,0,0
traffic-light-mouselab,False,3,1,[],"[[5, 8, 4, 6, 8], [6, 3, 8, 6, 8], [3, 4, 2, 6, 6]]","[[3, 3, 3, 3, 3], [3, 3, 3, 3, 3], [1, 1, 1, 1, 1]]","[2, 10, 18]",16,14,1,0.039,0.039,0.0,[],0,5,3,1450,0,118,118,hi,False,2,traffic-light-mouselab,18,377185,4,0,0,18,0,0
traffic-light-mouselab,False,3,1,"[12, 10, 14, 13, 11]","[[6, 3, 5, 5, 6], [5, 6, 5, 4, 6], [5, 3, 4, 6, 6]]","[[3, 3, 3, 3, 3], [3, 3, 3, 3, 3], [0, 0, 0, 0, 0]]","[18, 10, 2]",16,15,3,0.047,0.04533333333333334,0.0016666666666666668,"[12, 10, 14, 13, 11]",5,5,3,5827,5,142,137,low,False,2,traffic-light-mouselab,19,384521,6,1,5,2,5,0
traffic-light-mouselab,False,3,1,[],"[[9, 7, 3, 4, 3], [3, 5, 4, 6, 4], [3, 5, 8, 6, 2]]","[[3, 3, 3, 3, 3], [3, 3, 3, 3, 3], [3, 3, 3, 3, 3]]","[10, 18, 2]",16,16,1,0.057,0.057,0.0,[],0,5,3,3698,0,170,170,hi,True,1,traffic-light-mouselab,20,389570,5,0,0,18,0,0
traffic-light-mouselab,False,3,1,[],"[[7, 6, 5, 5, 3], [5, 5, 6, 3, 6], [7, 7, 4, 8, 7]]","[[3, 3, 3, 3, 3], [3, 3, 3, 3, 3], [3, 3, 3, 3, 3]]","[2, 10, 18]",16,17,2,0.047,0.047,0.0,[],0,5,3,3259,0,142,142,low,True,0,traffic-light-mouselab,21,394809,5,0,0,2,0,0
traffic-light-mouselab,False,3,1,[],"[[5, 7, 3, 3, 3], [6, 5, 4, 5, 5], [6, 5, 3, 6, 3]]","[[3, 3, 3, 3, 3], [3, 3, 3, 3, 3], [3, 3, 3, 3, 3]]","[10, 2, 18]",16,18,3,0.049,0.049,0.0,[],0,5,3,1732,0,148,148,hi,True,2,traffic-light-mouselab,22,398098,6,1,0,18,0,0
traffic-light-mouselab,False,3,1,[],"[[4, 4, 8, 5, 6], [6, 5, 6, 5, 4], [5, 2, 3, 5, 6]]","[[3, 3, 3, 3, 3], [3, 3, 3, 3, 3], [3, 3, 3, 3, 3]]","[2, 10, 18]",16,19,0,0.053,0.053,0.0,[],0,5,3,1890,0,158,158,low,True,0,traffic-light-mouselab,23,401376,4,0,0,2,0,0
traffic-light-mouselab,False,3,1,[],"[[4, 4, 7, 7, 4], [2, 5, 8, 7, 5], [6, 2, 5, 4, 3]]","[[3, 3, 3, 3, 3], [3, 3, 3, 3, 3], [3, 3, 3, 3, 3]]","[10, 18, 2]",16,20,1,0.045,0.045,0.0,[],0,5,3,1301,0,134,134,medium,True,0,traffic-light-mouselab,24,403906,4,0,0,10,0,0
traffic-light-mouselab,False,3,1,"[3, 0, 4, 2, 1]","[[2, 9, 4, 3, 6], [5, 6, 5, 4, 5], [5, 3, 8, 4, 5]]","[[0, 0, 0, 0, 0], [3, 3, 3, 3, 3], [3, 3, 3, 3, 3]]","[18, 2, 10]",16,21,1,0.068,0.06633333333333334,0.0016666666666666668,"[3, 0, 4, 2, 1]",5,5,3,6352,5,204,199,hi,False,0,traffic-light-mouselab,25,411769,9,1,5,18,5,0
traffic-light-mouselab,False,3,1,"[6, 9]","[[3, 3, 4, 6, 7], [1, 2, 6, 3, 9], [5, 8, 4, 1, 8]]","[[3, 3, 3, 3, 3], [1, 0, 1, 1, 0], [3, 3, 3, 3, 3]]","[2, 10, 18]",16,22,4,0.083,0.08233333333333334,0.0006666666666666666,"[6, 9]",2,5,3,3306,2,248,246,medium,False,1,traffic-light-mouselab,26,416713,9,1,2,10,2,0
traffic-light-mouselab,False,3,1,"[11, 14, 13, 10, 12]","[[6, 5, 9, 6, 5], [10, 8, 3, 6, 6], [3, 4, 4, 6, 6]]","[[3, 3, 3, 3, 3], [3, 3, 3, 3, 3], [0, 0, 0, 0, 0]]","[10, 18, 2]",16,23,3,0.06,0.058333333333333334,0.0016666666666666668,"[11, 14, 13, 10, 12]",5,5,3,7052,5,180,175,low,False,2,traffic-light-mouselab,27,425107,6,1,5,2,5,0
traffic-light-mouselab,False,3,1,"[5, 9, 7]","[[7, 6, 5, 5, 5], [2, 6, 9, 5, 5], [7, 7, 4, 4, 5]]","[[3, 3, 3, 3, 3], [0, 1, 0, 1, 0], [3, 3, 3, 3, 3]]","[2, 10, 18]",16,24,2,0.057,0.056,0.001,"[5, 9, 7]",3,5,3,4134,3,172,169,medium,False,1,traffic-light-mouselab,28,430632,9,1,3,10,3,0
traffic-light-mouselab,False,3,1,[],"[[6, 4, 5, 5, 5], [4, 6, 6, 8, 3], [2, 4, 5, 2, 4]]","[[3, 3, 3, 3, 3], [3, 3, 3, 3, 3], [3, 3, 3, 3, 3]]","[10, 18, 2]",16,25,0,0.045,0.045,0.0,[],0,5,3,2158,0,136,136,hi,True,1,traffic-light-mouselab,29,442858,4,0,0,18,0,0
traffic-light-mouselab,False,3,1,"[5, 8, 7, 6, 9]","[[4, 2, 8, 3, 3], [5, 3, 5, 1, 4], [6, 6, 8, 1, 7]]","[[3, 3, 3, 3, 3], [0, 0, 0, 0, 0], [3, 3, 3, 3, 3]]","[18, 2, 10]",16,26,2,0.078,0.07633333333333334,0.0016666666666666668,"[5, 8, 7, 6, 9]",5,5,3,6403,5,234,229,low,False,1,traffic-light-mouselab,30,451073,5,1,5,2,5,0
traffic-light-mouselab,False,3,1,[],"[[5, 3, 6, 5, 2], [5, 6, 4, 3, 5], [7, 7, 4, 6, 9]]","[[3, 3, 3, 3, 3], [3, 3, 3, 3, 3], [3, 3, 3, 3, 3]]","[18, 10, 2]",16,27,4,0.035,0.035,0.0,[],0,5,3,2356,0,104,104,low,True,2,traffic-light-mouselab,31,454938,9,1,0,2,0,0
traffic-light-mouselab,False,3,1,[],"[[4, 3, 5, 5, 3], [4, 7, 5, 6, 3], [5, 4, 5, 4, 1]]","[[3, 3, 3, 3, 3], [3, 3, 3, 3, 3], [3, 3, 3, 3, 3]]","[10, 2, 18]",16,28,0,0.046,0.046,0.0,[],0,5,3,1274,0,138,138,hi,True,2,traffic-light-mouselab,32,457793,5,1,0,18,0,0
traffic-light-mouselab,False,3,1,[],"[[5, 5, 4, 3, 6], [5, 9, 2, 6, 2], [4, 5, 8, 4, 5]]","[[3, 3, 3, 3, 3], [3, 3, 3, 3, 3], [3, 3, 3, 3, 3]]","[2, 10, 18]",16,29,1,0.063,0.063,0.0,[],0,5,3,1835,0,190,190,low,True,0,traffic-light-mouselab,33,461016,5,0,0,2,0,0
traffic-light-mouselab,False,3,1,[],"[[4, 5, 5, 4, 5], [2, 3, 3, 1, 6], [7, 3, 7, 6, 7]]","[[3, 3, 3, 3, 3], [1, 1, 1, 1, 1], [3, 3, 3, 3, 3]]","[2, 18, 10]",16,30,3,0.029,0.029,0.0,[],0,5,3,2444,0,86,86,hi,False,1,traffic-light-mouselab,34,465074,1,0,0,18,0,0
traffic-light-mouselab,False,3,1,[],"[[6, 5, 5, 4, 5], [4, 6, 4, 5, 4], [4, 3, 2, 5, 3]]","[[3, 3, 3, 3, 3], [3, 3, 3, 3, 3], [3, 3, 3, 3, 3]]","[2, 18, 10]",16,31,2,0.034,0.034,0.0,[],0,5,3,1413,0,102,102,medium,True,2,traffic-light-mouselab,35,469249,2,0,0,10,0,0
traffic-light-mouselab,False,3,1,"[0, 1, 3, 2, 4]","[[6, 4, 0, 5, 3], [4, 5, 4, 5, 6], [5, 8, 4, 4, 5]]","[[0, 0, 0, 0, 0], [3, 3, 3, 3, 3], [3, 3, 3, 3, 3]]","[18, 2, 10]",16,32,0,0.055,0.05333333333333334,0.0016666666666666668,"[0, 1, 3, 2, 4]",5,5,3,6843,5,166,161,hi,False,0,traffic-light-mouselab,36,477593,6,1,5,18,5,0
traffic-light-mouselab,True,3,1,"[10, 12, 8, 8, 8, 2, 2, 2, 0, 0, 0, 4, 4, 4, 14, 14, 14, 14, 6, 6, 6, 11, 11, 11, 1, 1, 1, 5, 5, 5, 7, 7, 7, 7, 3, 3, 3, 3, 9, 9, 9, 9, 13, 0]","[[7, 4, 4, 3, 5], [6, 6, 9, 5, 3], [6, 4, 3, 4, 7]]","[[0, 0, 0, 0, 0], [0, 0, 0, 0, 0], [0, 0, 0, 0, 0]]","[18, 2, 10]",16,1,0,0.066,0.05433333333333334,0.011666666666666667,"[10, 12, 8, 2, 0, 4, 14, 6, 11, 1, 5, 7, 3, 9, 13]",15,5,3,57311,35,198,163,medium,False,2,traffic-light-mouselab,4,220937,6,0,10,10,5,1
traffic-light-mouselab,True,3,1,"[0, 0, 0, 11, 11, 11, 8, 8, 8, 8, 13, 13, 13, 13, 12, 12, 12, 12, 7, 7, 7, 7, 2, 2, 2, 1, 1, 1, 6, 6, 6, 6, 5, 5, 5, 10, 10, 10, 3, 3, 3, 4, 4, 4, 9, 9, 9, 14, 14, 14]","[[6, 4, 6, 5, 3], [4, 3, 1, 5, 5], [6, 5, 4, 10, 2]]","[[0, 0, 0, 0, 0], [0, 0, 0, 0, 0], [0, 0, 0, 0, 0]]","[2, 10, 18]",16,2,3,0.08,0.065,0.015,"[0, 11, 8, 13, 12, 7, 2, 1, 6, 5, 10, 3, 4, 9, 14]",15,5,3,32418,45,240,195,hi,True,2,traffic-light-mouselab,5,255436,10,1,17,18,5,1
traffic-light-mouselab,False,3,1,"[0, 0, 0, 0, 5, 5, 5, 5, 6, 6, 6, 1, 1, 1, 2, 2, 2, 7, 7, 7, 3, 3, 3, 8, 8, 8, 9, 9, 9, 4, 4, 4, 14, 13, 12, 11, 10]","[[2, 5, 4, 5, 4], [4, 3, 4, 4, 3], [7, 7, 4, 4, 1]]","[[0, 0, 0, 0, 0], [0, 0, 0, 0, 0], [0, 0, 0, 0, 0]]","[2, 10, 18]",16,3,1,0.055,0.043333333333333335,0.011666666666666667,"[0, 5, 6, 1, 2, 7, 3, 8, 9, 4, 14, 13, 12, 11, 10]",15,5,3,30513,35,166,131,hi,False,2,traffic-light-mouselab,7,295807,7,1,5,18,5,1
traffic-light-mouselab,False,3,1,"[6, 6, 6, 13, 13, 13, 2, 2, 2, 4, 4, 4, 0, 0, 0]","[[4, 2, 3, 4, 5], [5, 8, 7, 3, 6], [6, 6, 5, 4, 7]]","[[0, 3, 0, 3, 0], [3, 0, 3, 3, 3], [1, 1, 1, 0, 1]]","[18, 10, 2]",16,4,1,0.043,0.03866666666666666,0.004333333333333333,"[6, 13, 2, 4, 0]",5,5,3,18759,13,128,115,low,False,2,traffic-light-mouselab,8,317431,6,0,3,2,1,1
traffic-light-mouselab,False,3,1,"[10, 10, 10, 2, 2, 2, 6, 6, 6, 8, 8, 8, 4, 4, 4]","[[6, 3, 6, 4, 5], [6, 5, 5, 7, 4], [3, 2, 5, 6, 5]]","[[3, 3, 0, 3, 0], [3, 0, 3, 0, 3], [0, 3, 3, 3, 3]]","[10, 18, 2]",16,5,3,0.059,0.054,0.005,"[10, 2, 6, 8, 4]",5,5,3,14737,15,178,163,medium,True,0,traffic-light-mouselab,9,335359,4,0,6,10,2,1
traffic-light-mouselab,False,3,1,"[6, 2, 2, 2, 13, 13, 13, 10, 10, 10, 9]","[[4, 5, 3, 4, 5], [8, 3, 4, 6, 2], [3, 4, 5, 4, 7]]","[[3, 3, 0, 3, 3], [1, 0, 1, 1, 0], [0, 3, 3, 0, 3]]","[10, 2, 18]",16,6,3,0.041,0.037333333333333336,0.0036666666666666666,"[6, 2, 13, 10, 9]",5,5,3,12535,11,124,113,low,False,1,traffic-light-mouselab,10,350330,6,0,2,2,2,1
traffic-light-mouselab,False,3,1,"[10, 10, 10, 6, 6, 6, 6, 1, 1, 1, 1, 12, 8, 8, 8, 14, 4, 4, 4]","[[8, 4, 7, 2, 3], [2, 5, 3, 6, 6], [6, 6, 7, 4, 8]]","[[3, 0, 3, 3, 0], [3, 0, 3, 0, 3], [0, 1, 0, 1, 0]]","[10, 2, 18]",16,7,4,0.062,0.057,0.005,"[10, 6, 1, 12, 8, 14, 4]",7,5,3,9865,15,186,171,hi,False,2,traffic-light-mouselab,11,368649,8,1,5,18,3,1
traffic-light-mouselab,False,3,1,"[11, 11, 11, 0, 0, 0, 7, 7, 7, 14, 14, 14, 8, 8, 8]","[[3, 5, 6, 4, 5], [6, 5, 5, 4, 2], [3, 6, 4, 5, 4]]","[[0, 3, 3, 3, 3], [3, 3, 0, 0, 3], [3, 0, 3, 3, 0]]","[18, 10, 2]",16,8,1,0.051,0.046,0.005,"[11, 0, 7, 14, 8]",5,5,3,10418,15,152,137,hi,True,0,traffic-light-mouselab,12,381874,5,0,3,18,1,1
traffic-light-mouselab,False,3,1,"[10, 6, 6, 6, 2, 2, 2, 8, 8, 8, 9, 9, 9, 12, 11]","[[4, 5, 6, 5, 3], [9, 6, 5, 4, 5], [4, 7, 5, 7, 4]]","[[3, 3, 0, 3, 3], [3, 0, 3, 0, 0], [0, 0, 0, 1, 1]]","[10, 2, 18]",16,9,1,0.063,0.058,0.005,"[10, 6, 2, 8, 9, 12, 11]",7,5,3,12660,15,188,173,hi,False,2,traffic-light-mouselab,13,396842,7,1,3,18,3,1
traffic-light-mouselab,False,3,1,"[0, 0, 0, 0, 6, 6, 6, 6, 2, 2, 2, 13, 13, 13, 4, 4, 4]","[[6, 4, 7, 6, 6], [3, 3, 6, 7, 4], [2, 5, 4, 5, 6]]","[[0, 3, 0, 3, 0], [3, 0, 3, 3, 3], [3, 3, 3, 0, 3]]","[2, 18, 10]",16,10,2,0.054,0.049,0.005,"[0, 6, 2, 13, 4]",5,5,3,9779,15,162,147,low,True,0,traffic-light-mouselab,14,408739,7,1,10,2,3,1
traffic-light-mouselab,False,3,1,"[10, 10, 10, 6, 8, 2, 2, 2, 2, 9, 9]","[[5, 5, 4, 6, 2], [6, 5, 7, 7, 9], [6, 10, 5, 4, 6]]","[[3, 3, 0, 3, 3], [1, 0, 1, 0, 0], [0, 3, 3, 3, 3]]","[2, 18, 10]",16,11,4,0.075,0.072,0.003,"[10, 6, 8, 2, 9]",5,5,3,9261,9,226,217,hi,False,1,traffic-light-mouselab,15,419820,9,1,4,18,3,1
traffic-light-mouselab,False,3,1,"[14, 14, 14, 12, 12, 12, 1, 1, 1, 5, 8, 9]","[[6, 6, 6, 7, 6], [4, 7, 6, 4, 7], [4, 8, 3, 6, 7]]","[[3, 0, 3, 3, 3], [0, 1, 1, 0, 0], [3, 3, 0, 3, 0]]","[10, 18, 2]",16,12,4,0.067,0.063,0.004,"[14, 12, 1, 5, 8, 9]",6,5,3,12123,12,200,188,hi,False,1,traffic-light-mouselab,16,435166,7,1,3,18,3,1
traffic-light-mouselab,False,3,1,"[10, 10, 10, 10, 7, 7, 7, 1, 1, 1, 13, 13, 13, 9, 9, 9]","[[1, 7, 5, 5, 5], [4, 3, 4, 6, 3], [5, 6, 7, 5, 4]]","[[3, 0, 3, 3, 3], [3, 3, 0, 3, 0], [0, 3, 3, 0, 3]]","[2, 18, 10]",16,13,1,0.043,0.038,0.005,"[10, 7, 1, 13, 9]",5,5,3,10772,15,128,113,low,True,0,traffic-light-mouselab,17,447752,7,1,3,2,1,1
traffic-light-mouselab,False,3,1,"[12, 12, 12, 2, 2, 2, 6, 6, 6, 0, 0, 0, 13, 13, 13, 4, 4, 4, 10, 10, 10]","[[6, 4, 1, 5, 4], [5, 6, 5, 5, 4], [6, 4, 4, 3, 6]]","[[0, 3, 0, 3, 0], [3, 0, 3, 3, 3], [0, 3, 0, 0, 3]]","[2, 10, 18]",16,14,0,0.057,0.05,0.007,"[12, 2, 6, 0, 13, 4, 10]",7,5,3,13521,21,170,149,medium,True,1,traffic-light-mouselab,18,463214,5,0,3,10,1,1
traffic-light-mouselab,False,3,1,"[6, 6, 6, 3, 3, 3, 12, 12, 12, 5, 5, 5, 14, 14, 14, 4, 4, 4, 1, 1, 1]","[[5, 7, 10, 5, 5], [5, 7, 4, 8, 6], [4, 5, 4, 4, 7]]","[[3, 0, 3, 0, 0], [0, 0, 3, 3, 3], [3, 3, 0, 3, 0]]","[10, 2, 18]",16,15,1,0.058,0.051000000000000004,0.007,"[6, 3, 12, 5, 14, 4, 1]",7,5,3,13559,21,174,153,hi,True,2,traffic-light-mouselab,19,479050,5,0,6,18,2,1
traffic-light-mouselab,False,3,1,"[10, 10, 7, 7, 7, 7, 1, 1, 1, 1, 13, 9, 9, 9]","[[1, 2, 3, 6, 5], [2, 7, 6, 9, 4], [5, 2, 4, 3, 3]]","[[3, 0, 3, 3, 3], [3, 3, 0, 3, 0], [0, 1, 1, 0, 1]]","[10, 18, 2]",16,16,2,0.049,0.04533333333333334,0.0036666666666666666,"[10, 7, 1, 13, 9]",5,5,3,9972,11,146,135,low,False,2,traffic-light-mouselab,20,491599,4,0,3,2,2,1
traffic-light-mouselab,False,3,1,"[10, 10, 10, 1, 1, 1]","[[7, 4, 5, 7, 6], [6, 7, 5, 7, 4], [4, 5, 6, 5, 7]]","[[3, 0, 3, 3, 3], [3, 3, 3, 3, 3], [0, 3, 3, 3, 3]]","[2, 10, 18]",16,17,3,0.058,0.056,0.002,"[10, 1]",2,5,3,6809,6,174,168,hi,True,2,traffic-light-mouselab,21,500164,5,0,3,18,1,1
traffic-light-mouselab,False,3,1,[],"[[7, 3, 7, 6, 8], [6, 7, 5, 6, 7], [4, 5, 5, 6, 6]]","[[3, 3, 3, 3, 3], [1, 1, 1, 1, 1], [3, 3, 3, 3, 3]]","[18, 10, 2]",16,18,1,0.045,0.045,0.0,[],0,5,3,3434,0,134,134,medium,False,1,traffic-light-mouselab,22,507646,7,1,0,10,0,1
traffic-light-mouselab,False,3,1,[],"[[5, 6, 3, 5, 5], [3, 6, 4, 5, 2], [5, 4, 7, 8, 4]]","[[3, 3, 3, 3, 3], [3, 3, 3, 3, 3], [1, 1, 1, 1, 1]]","[2, 18, 10]",16,19,3,0.06,0.06,0.0,[],0,5,3,1212,0,180,180,medium,False,2,traffic-light-mouselab,23,510427,8,1,0,10,0,1
traffic-light-mouselab,False,3,1,[],"[[5, 8, 7, 7, 5], [8, 4, 6, 5, 4], [5, 5, 4, 6, 5]]","[[3, 3, 3, 3, 3], [1, 1, 1, 1, 1], [3, 3, 3, 3, 3]]","[18, 2, 10]",16,20,1,0.067,0.067,0.0,[],0,5,3,1064,0,202,202,low,False,1,traffic-light-mouselab,24,512842,4,0,0,2,0,1
traffic-light-mouselab,False,3,1,[],"[[3, 6, 4, 5, 5], [7, 5, 3, 5, 8], [7, 2, 5, 4, 3]]","[[3, 3, 3, 3, 3], [3, 3, 3, 3, 3], [3, 3, 3, 3, 3]]","[10, 2, 18]",16,21,4,0.04,0.04,0.0,[],0,5,3,1675,0,120,120,low,True,1,traffic-light-mouselab,25,515871,8,1,0,2,0,1
traffic-light-mouselab,False,3,1,[],"[[7, 6, 6, 5, 5], [7, 5, 5, 1, 7], [2, 3, 5, 2, 4]]","[[3, 3, 3, 3, 3], [3, 3, 3, 3, 3], [3, 3, 3, 3, 3]]","[18, 2, 10]",16,22,0,0.053,0.053,0.0,[],0,5,3,1030,0,160,160,medium,True,2,traffic-light-mouselab,26,518350,2,0,0,10,0,1
traffic-light-mouselab,False,3,1,[],"[[6, 6, 2, 4, 5], [4, 7, 4, 6, 7], [4, 3, 4, 3, 4]]","[[3, 3, 3, 3, 3], [1, 1, 1, 1, 1], [3, 3, 3, 3, 3]]","[2, 10, 18]",16,23,0,0.041,0.041,0.0,[],0,5,3,1456,0,124,124,medium,False,1,traffic-light-mouselab,27,521245,4,0,0,10,0,1
traffic-light-mouselab,False,3,1,[],"[[7, 4, 4, 1, 6], [5, 6, 8, 4, 4], [3, 6, 8, 6, 6]]","[[1, 1, 1, 1, 1], [3, 3, 3, 3, 3], [3, 3, 3, 3, 3]]","[2, 10, 18]",16,24,2,0.077,0.077,0.0,[],0,5,3,1694,0,232,232,low,False,0,traffic-light-mouselab,28,524302,4,0,0,2,0,1
traffic-light-mouselab,False,3,1,[],"[[8, 6, 3, 2, 4], [8, 2, 0, 7, 5], [5, 3, 5, 4, 5]]","[[3, 3, 3, 3, 3], [3, 3, 3, 3, 3], [1, 1, 1, 1, 1]]","[18, 2, 10]",16,25,1,0.047,0.047,0.0,[],0,5,3,1238,0,142,142,medium,False,2,traffic-light-mouselab,29,527168,3,0,0,10,0,1
traffic-light-mouselab,False,3,1,[],"[[4, 7, 3, 6, 4], [4, 6, 2, 5, 5], [5, 2, 3, 8, 7]]","[[3, 3, 3, 3, 3], [1, 1, 1, 1, 1], [3, 3, 3, 3, 3]]","[2, 10, 18]",16,26,3,0.069,0.069,0.0,[],0,5,3,1201,0,206,206,medium,False,1,traffic-light-mouselab,30,530007,5,0,0,10,0,1
traffic-light-mouselab,False,3,1,[],"[[7, 5, 8, 6, 4], [5, 5, 7, 2, 6], [4, 5, 5, 9, 4]]","[[3, 3, 3, 3, 3], [3, 3, 3, 3, 3], [3, 3, 3, 3, 3]]","[10, 2, 18]",16,27,3,0.075,0.075,0.0,[],0,5,3,1452,0,226,226,hi,True,2,traffic-light-mouselab,31,532975,9,1,0,18,0,1
traffic-light-mouselab,False,3,1,[],"[[7, 6, 6, 3, 7], [7, 8, 5, 7, 4], [6, 6, 7, 3, 3]]","[[3, 3, 3, 3, 3], [3, 3, 3, 3, 3], [3, 3, 3, 3, 3]]","[2, 10, 18]",16,28,4,0.036,0.036,0.0,[],0,5,3,1006,0,108,108,medium,True,1,traffic-light-mouselab,32,535167,4,0,0,10,0,1
traffic-light-mouselab,False,3,1,[],"[[1, 4, 4, 6, 4], [6, 7, 7, 4, 5], [7, 4, 3, 6, 6]]","[[3, 3, 3, 3, 3], [3, 3, 3, 3, 3], [3, 3, 3, 3, 3]]","[18, 2, 10]",16,29,3,0.059,0.059,0.0,[],0,5,3,1495,0,176,176,low,True,1,traffic-light-mouselab,33,538053,4,0,0,2,0,1
traffic-light-mouselab,False,3,1,[],"[[4, 5, 5, 5, 1], [4, 7, 6, 5, 5], [3, 6, 6, 5, 7]]","[[3, 3, 3, 3, 3], [3, 3, 3, 3, 3], [3, 3, 3, 3, 3]]","[18, 2, 10]",16,30,1,0.055,0.055,0.0,[],0,5,3,1291,0,164,164,low,True,1,traffic-light-mouselab,34,540759,7,1,0,2,0,1
traffic-light-mouselab,False,3,1,[],"[[3, 5, 4, 6, 7], [5, 3, 5, 5, 7], [3, 5, 6, 5, 7]]","[[3, 3, 3, 3, 3], [3, 3, 3, 3, 3], [3, 3, 3, 3, 3]]","[18, 2, 10]",16,31,1,0.049,0.049,0.0,[],0,5,3,1879,0,146,146,medium,True,2,traffic-light-mouselab,35,543982,5,0,0,10,0,1
traffic-light-mouselab,False,3,1,[],"[[4, 7, 6, 5, 3], [3, 3, 3, 3, 6], [6, 3, 3, 6, 6]]","[[3, 3, 3, 3, 3], [3, 3, 3, 3, 3], [3, 3, 3, 3, 3]]","[18, 2, 10]",16,32,2,0.048,0.048,0.0,[],0,5,3,2363,0,144,144,hi,True,0,traffic-light-mouselab,36,547865,6,0,0,18,0,1
traffic-light-mouselab,True,3,1,"[7, 3, 10, 14, 6, 0, 4, 9, 5, 12, 11, 13, 8, 2, 1, 0, 4, 14, 7, 6]","[[7, 2, 6, 4, 6], [7, 8, 6, 5, 4], [7, 6, 5, 7, 7]]","[[1, 2, 2, 2, 1], [2, 1, 1, 2, 2], [2, 2, 2, 2, 1]]","[18, 10, 2]",16,1,4,0.054,0.04733333333333333,0.006666666666666667,[],0,5,3,123943,20,162,142,hi,True,0,traffic-light-mouselab,4,367782,6,0,7,18,0,2
traffic-light-mouselab,True,3,1,"[10, 14, 3]","[[7, 6, 3, 8, 4], [4, 5, 5, 5, 7], [6, 8, 5, 6, 6]]","[[3, 3, 3, 2, 3], [1, 1, 1, 1, 1], [2, 3, 3, 3, 2]]","[10, 18, 2]",16,2,4,0.059,0.057999999999999996,0.001,[],0,5,3,10176,3,178,175,hi,False,1,traffic-light-mouselab,5,381908,7,1,0,18,0,2
traffic-light-mouselab,False,3,1,"[10, 7, 4]","[[4, 6, 6, 6, 2], [2, 6, 4, 4, 7], [7, 3, 6, 6, 7]]","[[3, 3, 3, 3, 2], [3, 3, 2, 3, 3], [2, 3, 3, 3, 3]]","[2, 18, 10]",16,3,3,0.048,0.047,0.001,[],0,5,3,7974,3,144,141,hi,True,1,traffic-light-mouselab,7,404451,4,0,1,18,0,2
traffic-light-mouselab,False,3,1,"[14, 3, 5]","[[3, 6, 6, 5, 4], [10, 2, 3, 6, 6], [7, 4, 6, 5, 6]]","[[3, 3, 3, 2, 3], [0, 1, 1, 1, 1], [3, 3, 3, 3, 2]]","[10, 2, 18]",16,4,2,0.058,0.057,0.001,[5],1,5,3,10997,3,174,171,low,False,1,traffic-light-mouselab,8,419326,3,0,1,2,1,2
traffic-light-mouselab,False,3,1,"[0, 6, 13]","[[7, 5, 7, 6, 2], [4, 5, 2, 5, 7], [9, 5, 7, 5, 2]]","[[2, 3, 3, 3, 3], [3, 2, 3, 3, 3], [3, 3, 3, 2, 3]]","[18, 2, 10]",16,5,3,0.056,0.055,0.001,[],0,5,3,10179,3,168,165,low,True,1,traffic-light-mouselab,9,432792,5,0,1,2,0,2
traffic-light-mouselab,False,3,1,"[4, 7, 0]","[[7, 4, 3, 6, 7], [4, 8, 7, 5, 6], [2, 6, 5, 5, 5]]","[[2, 3, 3, 3, 2], [3, 3, 2, 3, 3], [3, 3, 3, 3, 3]]","[18, 10, 2]",16,6,1,0.055,0.054,0.001,[],0,5,3,10581,3,164,161,low,True,2,traffic-light-mouselab,10,446690,6,1,0,2,0,2
traffic-light-mouselab,False,3,1,"[0, 6, 8]","[[8, 2, 5, 4, 6], [6, 8, 5, 3, 6], [3, 5, 4, 6, 4]]","[[2, 3, 3, 3, 3], [3, 2, 3, 2, 3], [1, 1, 1, 1, 1]]","[18, 10, 2]",16,7,3,0.038,0.037,0.001,[],0,5,3,11245,3,114,111,low,False,2,traffic-light-mouselab,11,461558,6,1,0,2,0,2
traffic-light-mouselab,False,3,1,"[1, 12, 14]","[[3, 8, 6, 6, 7], [5, 4, 3, 3, 3], [4, 6, 7, 7, 5]]","[[3, 2, 3, 3, 3], [3, 3, 3, 3, 3], [3, 3, 2, 3, 2]]","[10, 2, 18]",16,8,4,0.055,0.054,0.001,[],0,5,3,10076,3,166,163,medium,True,0,traffic-light-mouselab,12,474521,7,0,1,10,0,2
traffic-light-mouselab,False,3,1,"[0, 11, 3]","[[8, 6, 6, 5, 7], [8, 8, 7, 4, 4], [6, 8, 6, 3, 5]]","[[2, 3, 3, 2, 3], [3, 3, 3, 3, 3], [3, 2, 3, 3, 3]]","[10, 18, 2]",16,9,2,0.066,0.065,0.001,[],0,5,3,12799,3,198,195,medium,True,0,traffic-light-mouselab,13,490038,6,0,2,10,0,2
traffic-light-mouselab,False,3,1,"[14, 0, 10]","[[7, 7, 1, 4, 4], [4, 4, 9, 3, 7], [9, 3, 4, 7, 6]]","[[2, 3, 3, 3, 3], [1, 1, 1, 1, 1], [2, 3, 3, 3, 2]]","[18, 10, 2]",16,10,2,0.039,0.038,0.001,[],0,5,3,8946,3,116,113,medium,False,1,traffic-light-mouselab,14,504518,9,1,0,10,0,2
traffic-light-mouselab,False,3,1,"[0, 6, 12, 8, 4]","[[6, 6, 7, 4, 5], [3, 6, 5, 6, 1], [4, 5, 4, 5, 6]]","[[2, 3, 3, 3, 2], [3, 2, 3, 2, 3], [3, 3, 2, 3, 3]]","[18, 10, 2]",16,11,4,0.037,0.035333333333333335,0.0016666666666666668,[],0,5,3,11745,5,112,107,medium,True,1,traffic-light-mouselab,15,519321,1,0,2,10,0,2
traffic-light-mouselab,False,3,1,"[10, 11, 12, 13, 14]","[[4, 3, 6, 1, 4], [5, 3, 6, 6, 4], [4, 5, 5, 6, 3]]","[[1, 1, 1, 1, 1], [3, 3, 3, 3, 3], [2, 2, 2, 2, 2]]","[10, 18, 2]",16,12,2,0.059,0.05733333333333333,0.0016666666666666668,[],0,5,3,10765,5,178,173,medium,False,0,traffic-light-mouselab,16,533299,6,1,0,10,0,2
traffic-light-mouselab,False,3,1,"[4, 0, 12, 2]","[[9, 5, 4, 9, 8], [5, 4, 4, 4, 5], [5, 3, 8, 3, 6]]","[[2, 3, 2, 3, 2], [3, 3, 3, 3, 3], [3, 3, 2, 3, 3]]","[2, 18, 10]",16,13,2,0.053,0.051666666666666666,0.0013333333333333333,[],0,5,3,12093,4,160,156,medium,True,2,traffic-light-mouselab,17,549221,8,1,1,10,0,2
traffic-light-mouselab,False,3,1,"[10, 11, 12, 13, 14]","[[1, 6, 5, 4, 3], [5, 8, 3, 7, 7], [6, 3, 3, 5, 6]]","[[1, 1, 1, 1, 1], [3, 3, 3, 3, 3], [2, 2, 2, 2, 2]]","[2, 18, 10]",16,14,2,0.031,0.029333333333333333,0.0016666666666666668,[],0,5,3,11069,5,94,89,low,False,0,traffic-light-mouselab,18,563522,5,0,0,2,0,2
traffic-light-mouselab,False,3,1,"[0, 6, 2, 8, 4]","[[5, 6, 5, 5, 7], [3, 9, 6, 7, 6], [2, 5, 5, 5, 7]]","[[2, 3, 2, 3, 2], [3, 2, 3, 2, 3], [1, 1, 1, 1, 1]]","[10, 2, 18]",16,15,0,0.031,0.029333333333333333,0.0016666666666666668,[],0,5,3,9534,5,92,87,hi,False,2,traffic-light-mouselab,19,577028,2,0,0,18,0,2
traffic-light-mouselab,False,3,1,"[14, 5, 11, 6]","[[4, 4, 8, 6, 5], [7, 5, 6, 8, 3], [2, 0, 4, 5, 2]]","[[1, 1, 1, 1, 1], [2, 2, 3, 3, 3], [3, 2, 3, 3, 2]]","[2, 18, 10]",16,16,1,0.033,0.03166666666666667,0.0013333333333333333,[],0,5,3,7583,4,98,94,low,False,0,traffic-light-mouselab,20,589090,4,0,0,2,0,2
traffic-light-mouselab,False,3,1,"[14, 13, 12, 11, 10]","[[4, 3, 6, 7, 4], [4, 7, 3, 7, 6], [5, 5, 5, 5, 3]]","[[1, 1, 1, 1, 1], [3, 3, 3, 3, 3], [2, 2, 2, 2, 2]]","[10, 2, 18]",16,17,2,0.052,0.050333333333333334,0.0016666666666666668,[],0,5,3,9199,5,156,151,medium,False,0,traffic-light-mouselab,21,603525,6,0,0,10,0,2
traffic-light-mouselab,False,3,1,"[4, 3, 2, 1, 0]","[[3, 5, 7, 5, 0], [4, 8, 6, 6, 6], [3, 8, 4, 4, 5]]","[[2, 2, 2, 2, 2], [3, 3, 3, 3, 3], [3, 3, 3, 3, 3]]","[18, 10, 2]",16,18,0,0.033,0.03133333333333334,0.0016666666666666668,[],0,5,3,10225,5,100,95,hi,True,0,traffic-light-mouselab,22,616933,3,0,5,18,0,2
traffic-light-mouselab,False,3,1,"[5, 6, 7, 8, 9]","[[6, 3, 3, 4, 6], [7, 7, 6, 6, 6], [7, 5, 6, 7, 7]]","[[1, 1, 1, 1, 1], [2, 2, 2, 2, 2], [3, 3, 3, 3, 3]]","[10, 2, 18]",16,19,3,0.059,0.05733333333333333,0.0016666666666666668,[],0,5,3,9121,5,178,173,medium,False,0,traffic-light-mouselab,23,629464,4,0,0,10,0,2
traffic-light-mouselab,False,3,1,"[10, 1, 12, 3, 14]","[[6, 8, 9, 7, 4], [3, 6, 9, 6, 5], [4, 7, 5, 2, 8]]","[[3, 2, 3, 2, 3], [1, 1, 1, 1, 1], [2, 3, 2, 3, 2]]","[2, 18, 10]",16,20,4,0.059,0.05733333333333333,0.0016666666666666668,[],0,5,3,7989,5,178,173,hi,False,1,traffic-light-mouselab,24,640011,5,0,0,18,0,2
traffic-light-mouselab,False,3,1,"[14, 13, 12, 11, 10]","[[5, 4, 7, 4, 2], [4, 3, 7, 9, 6], [7, 2, 4, 5, 4]]","[[3, 3, 3, 3, 3], [1, 1, 1, 1, 1], [2, 2, 2, 2, 2]]","[2, 10, 18]",16,21,0,0.059,0.05733333333333333,0.0016666666666666668,[],0,5,3,9496,5,176,171,medium,False,1,traffic-light-mouselab,25,655550,4,0,0,10,0,2
traffic-light-mouselab,False,3,1,"[10, 6, 12, 8, 14]","[[3, 6, 4, 4, 3], [6, 4, 6, 5, 4], [4, 6, 6, 5, 6]]","[[1, 1, 1, 1, 1], [3, 2, 3, 2, 3], [2, 3, 2, 3, 2]]","[18, 10, 2]",16,22,2,0.048,0.04633333333333334,0.0016666666666666668,[],0,5,3,6741,5,144,139,hi,False,0,traffic-light-mouselab,26,665684,4,0,0,18,0,2
traffic-light-mouselab,False,3,1,"[0, 6, 12, 8, 14]","[[5, 4, 5, 6, 4], [5, 4, 5, 4, 6], [8, 4, 2, 4, 4]]","[[2, 3, 3, 3, 3], [3, 2, 3, 2, 3], [3, 3, 2, 3, 2]]","[18, 2, 10]",16,23,1,0.04,0.03833333333333334,0.0016666666666666668,[],0,5,3,9859,5,120,115,low,True,1,traffic-light-mouselab,27,683318,4,0,2,2,0,2
traffic-light-mouselab,False,3,1,"[0, 1, 2, 3, 4]","[[8, 5, 2, 7, 6], [8, 6, 7, 5, 6], [4, 5, 5, 6, 4]]","[[2, 2, 2, 2, 2], [3, 3, 3, 3, 3], [3, 3, 3, 3, 3]]","[18, 10, 2]",16,24,4,0.059,0.05733333333333333,0.0016666666666666668,[],0,5,3,9704,5,176,171,low,True,2,traffic-light-mouselab,28,695462,4,0,0,2,0,2
traffic-light-mouselab,False,3,1,"[5, 6, 7, 8, 9]","[[6, 7, 5, 5, 5], [4, 1, 8, 5, 5], [5, 6, 4, 5, 5]]","[[3, 3, 3, 3, 3], [2, 2, 2, 2, 2], [3, 3, 3, 3, 3]]","[18, 10, 2]",16,25,3,0.05,0.04833333333333334,0.0016666666666666668,[],0,5,3,11777,5,150,145,medium,True,1,traffic-light-mouselab,29,710538,5,0,5,10,0,2
traffic-light-mouselab,False,3,1,"[0, 1, 2, 3, 4]","[[3, 6, 1, 4, 5], [8, 3, 4, 3, 5], [5, 2, 5, 5, 3]]","[[2, 2, 2, 2, 2], [3, 3, 3, 3, 3], [1, 1, 1, 1, 1]]","[10, 2, 18]",16,26,0,0.045,0.043333333333333335,0.0016666666666666668,[],0,5,3,11006,5,136,131,hi,False,2,traffic-light-mouselab,30,723546,5,1,0,18,0,2
traffic-light-mouselab,False,3,1,"[5, 6, 7, 8, 9]","[[4, 5, 7, 4, 7], [8, 6, 3, 5, 4], [7, 5, 5, 5, 5]]","[[3, 3, 3, 3, 3], [2, 2, 2, 2, 2], [1, 1, 1, 1, 1]]","[18, 10, 2]",16,27,1,0.053,0.051333333333333335,0.0016666666666666668,[],0,5,3,9350,5,160,155,low,False,2,traffic-light-mouselab,31,735455,5,0,0,2,0,2
traffic-light-mouselab,False,3,1,"[0, 11, 2, 13, 4]","[[6, 5, 4, 8, 8], [5, 6, 7, 5, 5], [7, 6, 5, 6, 6]]","[[2, 3, 2, 3, 2], [3, 3, 3, 3, 3], [3, 2, 3, 2, 3]]","[18, 10, 2]",16,28,2,0.051,0.04933333333333333,0.0016666666666666668,[],0,5,3,14430,5,152,147,low,True,2,traffic-light-mouselab,32,752134,5,0,2,2,0,2
traffic-light-mouselab,False,3,1,"[9, 8, 7, 6, 0]","[[5, 7, 3, 4, 7], [4, 7, 4, 4, 6], [5, 8, 3, 7, 4]]","[[2, 3, 3, 3, 3], [3, 2, 2, 2, 2], [1, 1, 1, 1, 1]]","[10, 2, 18]",16,29,3,0.058,0.05633333333333334,0.0016666666666666668,[],0,5,3,8150,5,174,169,hi,False,2,traffic-light-mouselab,33,763105,7,0,0,18,0,2
traffic-light-mouselab,False,3,1,"[4, 9, 14, 10, 0]","[[0, 2, 4, 7, 3], [5, 5, 4, 7, 4], [6, 3, 5, 5, 3]]","[[2, 3, 3, 3, 2], [3, 3, 3, 3, 2], [2, 3, 3, 3, 2]]","[2, 10, 18]",16,30,4,0.033,0.03133333333333334,0.0016666666666666668,[],0,5,3,9445,5,100,95,hi,True,2,traffic-light-mouselab,34,775578,3,0,2,18,0,2
traffic-light-mouselab,False,3,1,"[10, 6, 2, 8, 14]","[[5, 2, 4, 6, 5], [6, 3, 6, 4, 8], [4, 6, 4, 5, 9]]","[[3, 3, 2, 3, 3], [3, 2, 3, 2, 3], [2, 3, 3, 3, 2]]","[2, 10, 18]",16,31,2,0.047,0.04533333333333334,0.0016666666666666668,[],0,5,3,8759,5,140,135,hi,True,2,traffic-light-mouselab,35,786648,4,0,2,18,0,2
traffic-light-mouselab,False,3,1,"[10, 10]","[[4, 6, 7, 7, 7], [5, 7, 2, 5, 5], [2, 5, 5, 8, 7]]","[[3, 3, 3, 3, 3], [3, 3, 3, 3, 3], [1, 3, 3, 3, 3]]","[18, 2, 10]",16,32,0,0.034,0.03333333333333333,0.0006666666666666666,[],0,5,3,4317,2,102,100,hi,True,0,traffic-light-mouselab,36,795914,4,0,0,18,0,2
traffic-light-mouselab,True,3,1,"[11, 10, 12, 13, 2, 2, 2, 14, 0, 0, 0, 1, 1, 1, 3, 3, 3, 4, 4, 4, 5, 5, 5, 6, 6, 6, 7, 7, 7, 8, 8, 8, 9, 9, 9]","[[7, 6, 6, 4, 5], [8, 6, 9, 6, 8], [4, 6, 4, 6, 4]]","[[0, 0, 0, 0, 0], [0, 0, 0, 0, 0], [0, 0, 0, 0, 0]]","[18, 10, 2]",16,1,0,0.071,0.05933333333333333,0.011666666666666667,"[11, 10, 12, 13, 2, 14, 0, 1, 3, 4, 5, 6, 7, 8, 9]",15,5,3,134851,35,214,179,low,False,2,traffic-light-mouselab,4,384270,4,0,5,2,5,3
traffic-light-mouselab,True,3,1,"[10, 10, 10, 11, 11, 11, 12, 12, 12, 14, 14, 14, 13, 13, 13, 8, 8, 8, 7, 7, 7, 9, 9, 9, 2, 2, 2, 3, 3, 3, 6, 6, 6, 5, 5, 5]","[[4, 3, 5, 6, 5], [4, 6, 4, 4, 3], [3, 5, 7, 6, 7]]","[[3, 3, 0, 0, 3], [0, 0, 0, 0, 0], [0, 0, 0, 0, 0]]","[2, 10, 18]",16,2,2,0.059,0.047,0.012,"[10, 11, 12, 14, 13, 8, 7, 9, 2, 3, 6, 5]",12,5,3,48005,36,176,140,low,True,0,traffic-light-mouselab,5,447906,5,0,6,2,2,3
traffic-light-mouselab,False,3,1,"[0, 1, 2, 3, 4, 7, 7, 7, 6, 6, 6, 9, 9, 9, 5, 5, 5]","[[2, 6, 7, 4, 6], [6, 3, 4, 5, 8], [7, 5, 5, 2, 4]]","[[0, 0, 0, 0, 0], [0, 0, 0, 3, 0], [3, 3, 3, 3, 3]]","[10, 18, 2]",16,3,4,0.071,0.06533333333333333,0.005666666666666667,"[0, 1, 2, 3, 4, 7, 6, 9, 5]",9,5,3,29035,17,212,195,medium,False,0,traffic-light-mouselab,7,488162,6,0,5,10,5,3
traffic-light-mouselab,False,3,1,"[5, 5, 5, 6, 6, 6, 7, 7, 7, 8, 8, 8, 9, 9, 9, 10, 10, 10, 12, 12, 12, 13, 13, 13, 14, 14, 14]","[[8, 6, 2, 7, 6], [6, 4, 5, 5, 5], [3, 4, 5, 9, 7]]","[[3, 3, 3, 3, 3], [0, 0, 0, 0, 0], [0, 3, 0, 0, 0]]","[2, 18, 10]",16,4,3,0.065,0.056,0.009,"[5, 6, 7, 8, 9, 10, 12, 13, 14]",9,5,3,30168,27,194,167,medium,True,2,traffic-light-mouselab,8,530978,9,1,12,10,4,3
traffic-light-mouselab,False,3,1,"[10, 11, 12, 13, 14, 1, 1, 1, 2, 2, 2, 0, 0, 0]","[[7, 7, 5, 5, 2], [4, 7, 0, 3, 3], [4, 6, 5, 2, 4]]","[[0, 0, 0, 3, 3], [3, 3, 3, 3, 3], [0, 0, 0, 0, 0]]","[18, 2, 10]",16,5,1,0.067,0.06233333333333334,0.004666666666666667,"[10, 11, 12, 13, 14, 1, 2, 0]",8,5,3,31674,14,200,186,medium,False,2,traffic-light-mouselab,9,567458,6,1,5,10,5,3
traffic-light-mouselab,False,3,1,"[5, 5, 5, 6, 6, 6, 7, 7, 7, 8, 8, 8, 9, 9, 9, 13, 13, 13, 12, 12, 12, 10, 10, 10]","[[4, 4, 5, 5, 5], [7, 4, 7, 7, 5], [4, 4, 7, 5, 5]]","[[1, 1, 1, 1, 1], [0, 0, 0, 0, 0], [0, 3, 0, 0, 3]]","[2, 18, 10]",16,6,2,0.069,0.061000000000000006,0.008,"[5, 6, 7, 8, 9, 13, 12, 10]",8,5,3,17662,24,206,182,low,False,0,traffic-light-mouselab,10,589693,5,1,0,2,0,3
traffic-light-mouselab,False,3,1,"[5, 5, 5, 6, 6, 6, 7, 7, 7, 8, 8, 8, 9, 9, 9, 10, 10, 10, 11, 11, 11, 14, 14, 14]","[[4, 1, 6, 7, 4], [5, 5, 2, 2, 5], [5, 2, 5, 5, 4]]","[[3, 3, 3, 3, 3], [0, 0, 0, 0, 0], [0, 0, 3, 3, 0]]","[2, 18, 10]",16,7,0,0.049,0.041,0.008,"[5, 6, 7, 8, 9, 10, 11, 14]",8,5,3,22707,24,148,124,low,True,0,traffic-light-mouselab,11,615761,4,0,0,2,0,3
traffic-light-mouselab,False,3,1,"[0, 0, 0, 1, 1, 1, 2, 2, 2, 3, 3, 3, 4, 4, 4, 7, 7, 7, 5, 5, 5, 8, 8, 8]","[[6, 5, 10, 6, 3], [4, 6, 5, 6, 3], [7, 6, 3, 6, 6]]","[[0, 0, 0, 0, 0], [0, 3, 0, 0, 3], [1, 1, 1, 1, 1]]","[18, 10, 2]",16,8,2,0.079,0.07100000000000001,0.008,"[0, 1, 2, 3, 4, 7, 5, 8]",8,5,3,13433,24,236,212,low,False,2,traffic-light-mouselab,12,633488,3,0,0,2,0,3
traffic-light-mouselab,False,3,1,"[0, 0, 0, 1, 1, 1, 2, 2, 2, 3, 3, 3, 4, 4, 4, 8, 8, 8, 9, 9, 9]","[[2, 4, 5, 8, 6], [5, 5, 5, 3, 5], [3, 4, 4, 7, 6]]","[[0, 0, 0, 0, 0], [3, 3, 3, 0, 0], [3, 3, 3, 3, 3]]","[18, 10, 2]",16,9,3,0.063,0.056,0.007,"[0, 1, 2, 3, 4, 8, 9]",7,5,3,20307,21,188,167,hi,True,0,traffic-light-mouselab,13,656790,8,1,15,18,5,3
traffic-light-mouselab,False,3,1,"[5, 5, 5, 6, 6, 6, 7, 7, 7, 8, 8, 8, 9, 9, 9, 2, 2, 2, 0, 0, 0, 3, 3, 3]","[[5, 2, 7, 4, 4], [5, 3, 6, 5, 2], [3, 7, 5, 5, 6]]","[[0, 3, 0, 0, 3], [0, 0, 0, 0, 0], [3, 3, 3, 3, 3]]","[10, 18, 2]",16,10,2,0.063,0.055,0.008,"[5, 6, 7, 8, 9, 2, 0, 3]",8,5,3,21063,24,188,164,hi,True,1,traffic-light-mouselab,14,681491,6,1,15,18,5,3
traffic-light-mouselab,False,3,1,"[5, 5, 5, 6, 6, 6, 7, 7, 7, 8, 8, 8, 9, 9, 9, 11, 11, 11]","[[4, 5, 6, 6, 1], [6, 9, 5, 6, 7], [3, 6, 7, 5, 7]]","[[3, 3, 3, 3, 3], [0, 0, 0, 0, 0], [3, 0, 3, 3, 3]]","[2, 18, 10]",16,11,1,0.077,0.071,0.006,"[5, 6, 7, 8, 9, 11]",6,5,3,16204,18,232,214,hi,True,1,traffic-light-mouselab,15,698779,9,1,15,18,5,3
traffic-light-mouselab,False,3,1,"[5, 6, 7, 8, 9, 1, 1, 1, 2, 2, 2, 4, 4, 4, 3, 3, 3]","[[0, 4, 3, 2, 5], [3, 6, 6, 5, 6], [5, 1, 9, 4, 7]]","[[3, 0, 0, 0, 0], [0, 0, 0, 0, 0], [3, 3, 3, 3, 3]]","[18, 10, 2]",16,12,4,0.055,0.04933333333333333,0.005666666666666667,"[5, 6, 7, 8, 9, 1, 2, 4, 3]",9,5,3,12891,17,164,147,medium,False,1,traffic-light-mouselab,16,712854,6,1,5,10,5,3
traffic-light-mouselab,False,3,1,"[10, 10, 10, 11, 11, 11, 12, 12, 12, 13, 13, 13, 14, 14, 14, 5, 5, 5, 6, 6, 6]","[[1, 5, 6, 6, 4], [7, 4, 3, 7, 2], [6, 5, 4, 2, 4]]","[[1, 1, 1, 1, 1], [0, 0, 3, 3, 3], [0, 0, 0, 0, 0]]","[2, 10, 18]",16,13,0,0.06,0.053,0.007,"[10, 11, 12, 13, 14, 5, 6]",7,5,3,13090,21,180,159,low,False,0,traffic-light-mouselab,17,727710,1,0,0,2,0,3
traffic-light-mouselab,False,3,1,"[5, 5, 5, 6, 6, 6, 7, 7, 7, 8, 8, 8, 9, 9, 9, 11, 11, 11]","[[2, 1, 6, 5, 3], [3, 8, 5, 2, 4], [4, 6, 6, 7, 7]]","[[3, 3, 3, 3, 3], [0, 0, 0, 0, 0], [3, 0, 3, 3, 3]]","[2, 18, 10]",16,14,1,0.069,0.063,0.006,"[5, 6, 7, 8, 9, 11]",6,5,3,7834,18,206,188,low,True,0,traffic-light-mouselab,18,736464,1,0,0,2,0,3
traffic-light-mouselab,False,3,1,"[10, 10, 10, 11, 11, 11, 12, 12, 12, 13, 13, 13, 14, 14, 14, 5, 5, 5, 7, 7, 7]","[[6, 6, 4, 2, 6], [4, 5, 4, 6, 4], [7, 3, 6, 2, 3]]","[[3, 3, 3, 3, 3], [0, 3, 0, 3, 3], [0, 0, 0, 0, 0]]","[2, 10, 18]",16,15,0,0.059,0.052,0.007,"[10, 11, 12, 13, 14, 5, 7]",7,5,3,11895,21,178,157,hi,True,2,traffic-light-mouselab,19,749278,7,1,15,18,5,3
traffic-light-mouselab,False,3,1,"[0, 0, 0, 1, 1, 1, 2, 2, 2, 3, 3, 3, 4, 4, 4, 7, 7, 7, 9, 9, 9]","[[2, 5, 7, 4, 6], [4, 6, 5, 1, 4], [8, 4, 4, 8, 3]]","[[0, 0, 0, 0, 0], [3, 3, 0, 3, 0], [3, 3, 3, 3, 3]]","[18, 10, 2]",16,16,2,0.061,0.054,0.007,"[0, 1, 2, 3, 4, 7, 9]",7,5,3,12252,21,184,163,low,True,2,traffic-light-mouselab,20,762271,4,0,0,2,0,3
traffic-light-mouselab,False,3,1,"[0, 1, 2, 3, 4, 6, 6, 6, 5, 5, 5, 9, 9, 9, 10, 10, 10, 14, 14, 14]","[[7, 8, 4, 4, 7], [6, 3, 5, 2, 6], [3, 1, 4, 6, 7]]","[[0, 0, 0, 0, 0], [0, 0, 3, 3, 0], [0, 3, 3, 3, 0]]","[18, 10, 2]",16,17,4,0.067,0.060333333333333336,0.006666666666666667,"[0, 1, 2, 3, 4, 6, 5, 9, 10, 14]",10,5,3,25647,20,200,180,hi,False,0,traffic-light-mouselab,21,792817,7,0,5,18,5,3
traffic-light-mouselab,False,3,1,"[5, 5, 5, 6, 6, 6, 7, 7, 7, 8, 8, 8, 9, 9, 9, 13, 13, 13]","[[9, 4, 5, 3, 4], [6, 5, 3, 10, 3], [4, 6, 5, 5, 4]]","[[3, 3, 3, 3, 3], [0, 0, 0, 0, 0], [3, 3, 3, 0, 3]]","[2, 18, 10]",16,18,3,0.079,0.073,0.006,"[5, 6, 7, 8, 9, 13]",6,5,3,9402,18,236,218,medium,True,2,traffic-light-mouselab,22,803790,5,0,3,10,1,3
traffic-light-mouselab,False,3,1,"[5, 5, 5, 6, 6, 6, 7, 7, 7, 8, 8, 8, 9, 9, 9, 3, 3, 3, 0, 0, 0]","[[5, 5, 4, 5, 8], [6, 4, 4, 7, 4], [3, 6, 7, 4, 7]]","[[0, 3, 3, 0, 3], [0, 0, 0, 0, 0], [1, 1, 1, 1, 1]]","[10, 18, 2]",16,19,3,0.061,0.054,0.007,"[5, 6, 7, 8, 9, 3, 0]",7,5,3,17277,21,184,163,low,False,2,traffic-light-mouselab,23,822898,4,0,0,2,0,3
traffic-light-mouselab,False,3,1,"[5, 6, 7, 8, 9, 0, 0, 0, 1, 1, 1]","[[7, 4, 1, 6, 7], [7, 6, 2, 3, 4], [3, 6, 5, 5, 4]]","[[0, 0, 3, 3, 3], [0, 0, 0, 0, 0], [3, 3, 3, 3, 3]]","[18, 10, 2]",16,20,0,0.067,0.06333333333333334,0.0036666666666666666,"[5, 6, 7, 8, 9, 0, 1]",7,5,3,8289,11,202,191,medium,False,1,traffic-light-mouselab,24,832392,7,1,5,10,5,3
traffic-light-mouselab,False,3,1,"[0, 0, 0, 1, 1, 1, 2, 2, 2, 3, 3, 3, 4, 4, 4, 8, 8, 8, 7, 7, 7, 6, 6, 6]","[[5, 6, 6, 7, 5], [7, 3, 7, 2, 5], [4, 3, 7, 7, 3]]","[[0, 0, 0, 0, 0], [3, 0, 0, 0, 3], [1, 1, 1, 1, 1]]","[18, 10, 2]",16,21,2,0.064,0.056,0.008,"[0, 1, 2, 3, 4, 8, 7, 6]",8,5,3,12495,24,192,168,low,False,2,traffic-light-mouselab,25,846443,7,1,0,2,0,3
traffic-light-mouselab,False,3,1,"[10, 11, 12, 13, 14, 9, 9, 9, 8, 8, 8]","[[7, 5, 3, 5, 3], [6, 4, 6, 5, 6], [3, 4, 6, 6, 7]]","[[3, 3, 3, 3, 3], [3, 3, 3, 0, 0], [0, 0, 0, 0, 0]]","[2, 10, 18]",16,22,4,0.064,0.060333333333333336,0.0036666666666666666,"[10, 11, 12, 13, 14, 9, 8]",7,5,3,18853,11,192,181,hi,False,2,traffic-light-mouselab,26,866567,7,1,5,18,5,3
traffic-light-mouselab,False,3,1,"[10, 10, 10, 11, 11, 11, 12, 12, 12, 13, 13, 13, 14, 14, 14]","[[5, 6, 4, 5, 5], [7, 6, 6, 5, 5], [2, 5, 5, 7, 5]]","[[3, 3, 3, 3, 3], [3, 3, 3, 3, 3], [0, 0, 0, 0, 0]]","[10, 2, 18]",16,23,3,0.062,0.057,0.005,"[10, 11, 12, 13, 14]",5,5,3,11683,15,186,171,medium,True,0,traffic-light-mouselab,27,879292,5,0,0,10,0,3
traffic-light-mouselab,False,3,1,"[0, 0, 0, 1, 1, 1, 2, 2, 2, 3, 3, 3, 4, 4, 4, 14, 14, 14, 13, 13, 13]","[[5, 4, 5, 6, 6], [6, 7, 7, 6, 5], [5, 6, 3, 3, 6]]","[[0, 0, 0, 0, 0], [3, 3, 3, 3, 3], [3, 3, 3, 0, 0]]","[18, 2, 10]",16,24,4,0.059,0.052,0.007,"[0, 1, 2, 3, 4, 14, 13]",7,5,3,10877,21,178,157,low,True,1,traffic-light-mouselab,28,891236,5,0,0,2,0,3
traffic-light-mouselab,False,3,1,"[0, 0, 0, 1, 1, 1, 2, 2, 2, 3, 3, 3, 4, 4, 4, 10, 10, 10]","[[9, 6, 6, 5, 5], [8, 4, 8, 5, 8], [7, 5, 4, 5, 5]]","[[0, 0, 0, 0, 0], [3, 3, 3, 3, 3], [0, 3, 3, 3, 3]]","[18, 2, 10]",16,25,0,0.083,0.077,0.006,"[0, 1, 2, 3, 4, 10]",6,5,3,15702,18,248,230,medium,True,2,traffic-light-mouselab,29,908151,7,1,3,10,1,3
traffic-light-mouselab,False,3,1,"[10, 10, 10, 11, 11, 11, 12, 12, 12, 13, 13, 13, 14, 14, 14, 6, 6, 6, 5, 5, 5]","[[3, 4, 3, 3, 4], [7, 7, 2, 3, 5], [5, 6, 4, 3, 3]]","[[3, 3, 3, 3, 3], [0, 0, 3, 3, 3], [0, 0, 0, 0, 0]]","[2, 10, 18]",16,26,1,0.062,0.055,0.007,"[10, 11, 12, 13, 14, 6, 5]",7,5,3,13654,21,186,165,low,True,0,traffic-light-mouselab,30,922775,4,1,0,2,0,3
traffic-light-mouselab,False,3,1,"[6, 5, 7, 8, 9, 13, 13, 13, 11, 11, 11, 10, 10, 10]","[[6, 3, 9, 6, 7], [3, 4, 2, 5, 2], [6, 4, 3, 4, 6]]","[[3, 3, 3, 3, 3], [0, 0, 0, 0, 0], [0, 0, 3, 0, 3]]","[2, 18, 10]",16,27,3,0.047,0.042333333333333334,0.004666666666666667,"[6, 5, 7, 8, 9, 13, 11, 10]",8,5,3,18902,14,142,128,hi,False,1,traffic-light-mouselab,31,942507,5,1,5,18,5,3
traffic-light-mouselab,False,3,1,"[0, 0, 0, 1, 1, 1, 2, 2, 2, 3, 3, 3, 4, 4, 4, 8, 8, 8, 7, 7, 7, 5, 5, 5]","[[5, 4, 6, 6, 3], [2, 6, 4, 4, 6], [3, 4, 5, 5, 6]]","[[0, 0, 0, 0, 0], [0, 3, 0, 0, 3], [3, 3, 3, 3, 3]]","[18, 10, 2]",16,28,2,0.053,0.045,0.008,"[0, 1, 2, 3, 4, 8, 7, 5]",8,5,3,12806,24,158,134,medium,True,1,traffic-light-mouselab,32,958137,4,0,9,10,3,3
traffic-light-mouselab,False,3,1,"[5, 6, 7, 8, 9, 1, 1, 1, 4, 4, 4, 0, 0, 0, 2, 2, 2, 3, 3, 3]","[[5, 4, 6, 8, 4], [5, 8, 4, 4, 6], [7, 3, 2, 8, 6]]","[[0, 0, 0, 0, 0], [0, 0, 0, 0, 0], [3, 3, 3, 3, 3]]","[18, 10, 2]",16,29,3,0.067,0.060333333333333336,0.006666666666666667,"[5, 6, 7, 8, 9, 1, 4, 0, 2, 3]",10,5,3,22772,20,200,180,medium,False,1,traffic-light-mouselab,33,982448,4,0,5,10,5,3
traffic-light-mouselab,False,3,1,"[0, 0, 0, 1, 1, 1, 2, 2, 2, 3, 3, 3, 4, 4, 4, 13, 13, 13, 14, 14, 14, 12, 12, 12, 11, 11, 11]","[[4, 6, 6, 7, 6], [5, 2, 7, 7, 2], [4, 9, 5, 3, 4]]","[[0, 0, 0, 0, 0], [3, 3, 3, 3, 3], [3, 0, 0, 0, 0]]","[18, 2, 10]",16,30,1,0.067,0.058,0.009,"[0, 1, 2, 3, 4, 13, 14, 12, 11]",9,5,3,14415,27,202,175,hi,True,0,traffic-light-mouselab,34,997904,6,0,15,18,5,3
traffic-light-mouselab,False,3,1,"[10, 11, 12, 13, 14, 6, 6, 6]","[[5, 6, 6, 7, 4], [4, 5, 6, 7, 6], [6, 8, 4, 5, 3]]","[[3, 3, 3, 3, 3], [3, 0, 3, 3, 3], [0, 0, 0, 0, 0]]","[2, 10, 18]",16,31,1,0.069,0.06633333333333334,0.0026666666666666666,"[10, 11, 12, 13, 14, 6]",6,5,3,17352,8,206,198,hi,False,2,traffic-light-mouselab,35,1017298,8,1,5,18,5,3
traffic-light-mouselab,False,3,1,"[0, 1, 2, 3, 4, 9, 9, 9]","[[4, 5, 4, 4, 7], [5, 4, 6, 6, 7], [3, 2, 6, 5, 3]]","[[0, 0, 0, 0, 0], [3, 3, 3, 3, 0], [3, 3, 3, 3, 3]]","[18, 10, 2]",16,32,4,0.067,0.06433333333333334,0.0026666666666666666,"[0, 1, 2, 3, 4, 9]",6,5,3,12374,8,202,194,hi,False,0,traffic-light-mouselab,36,1030976,7,1,5,18,5,3
traffic-light-mouselab,True,3,1,[],"[[6, 7, 3, 5, 2], [1, 6, 3, 7, 4], [9, 8, 3, 4, 4]]","[[3, 3, 3, 3, 3], [3, 3, 3, 3, 3], [3, 3, 3, 3, 3]]","[2, 10, 18]",16,1,0,0.061,0.061,0.0,[],0,5,3,2615,0,184,184,medium,True,1,traffic-light-mouselab,4,121199,1,0,0,10,0,4
traffic-light-mouselab,True,3,1,[],"[[4, 7, 4, 6, 5], [4, 2, 3, 4, 4], [4, 8, 6, 5, 3]]","[[3, 3, 3, 3, 3], [1, 1, 1, 1, 1], [3, 3, 3, 3, 3]]","[2, 18, 10]",16,2,3,0.045,0.045,0.0,[],0,5,3,7174,0,134,134,hi,False,1,traffic-light-mouselab,5,131910,4,1,0,18,0,4
traffic-light-mouselab,False,3,1,[],"[[5, 6, 5, 7, 5], [3, 2, 5, 4, 4], [5, 3, 7, 5, 4]]","[[3, 3, 3, 3, 3], [3, 3, 3, 3, 3], [3, 3, 3, 3, 3]]","[10, 18, 2]",16,3,1,0.034,0.034,0.0,[],0,5,3,2716,0,102,102,medium,True,0,traffic-light-mouselab,7,141229,6,0,0,10,0,4
traffic-light-mouselab,False,3,1,[],"[[5, 3, 9, 6, 3], [7, 6, 5, 7, 3], [7, 4, 6, 2, 6]]","[[1, 1, 1, 1, 1], [3, 3, 3, 3, 3], [3, 3, 3, 3, 3]]","[10, 18, 2]",16,4,0,0.063,0.063,0.0,[],0,5,3,7216,0,190,190,medium,False,0,traffic-light-mouselab,8,151225,5,0,0,10,0,4
traffic-light-mouselab,False,3,1,[],"[[4, 5, 2, 4, 5], [6, 6, 5, 2, 4], [5, 6, 3, 3, 5]]","[[1, 1, 1, 1, 1], [3, 3, 3, 3, 3], [3, 3, 3, 3, 3]]","[2, 10, 18]",16,5,4,0.047,0.047,0.0,[],0,5,3,3093,0,140,140,low,False,0,traffic-light-mouselab,9,156539,5,1,0,2,0,4
traffic-light-mouselab,False,3,1,[],"[[7, 5, 6, 7, 6], [6, 7, 2, 5, 4], [5, 6, 4, 8, 6]]","[[3, 3, 3, 3, 3], [1, 1, 1, 1, 1], [3, 3, 3, 3, 3]]","[18, 2, 10]",16,6,0,0.063,0.063,0.0,[],0,5,3,3033,0,188,188,low,False,1,traffic-light-mouselab,10,164412,6,0,0,2,0,4
traffic-light-mouselab,False,3,1,[],"[[6, 3, 4, 2, 4], [6, 5, 9, 1, 8], [6, 2, 4, 6, 9]]","[[3, 3, 3, 3, 3], [3, 3, 3, 3, 3], [3, 3, 3, 3, 3]]","[2, 10, 18]",16,7,1,0.031,0.031,0.0,[],0,5,3,2043,0,92,92,hi,True,2,traffic-light-mouselab,11,168233,2,0,0,18,0,4
traffic-light-mouselab,False,3,1,[],"[[6, 7, 4, 4, 6], [5, 5, 5, 5, 7], [3, 8, 6, 8, 1]]","[[3, 3, 3, 3, 3], [3, 3, 3, 3, 3], [3, 3, 3, 3, 3]]","[2, 10, 18]",16,8,2,0.055,0.055,0.0,[],0,5,3,1297,0,166,166,low,True,0,traffic-light-mouselab,12,171056,4,0,0,2,0,4
traffic-light-mouselab,False,3,1,[],"[[6, 2, 4, 8, 5], [6, 3, 4, 4, 4], [5, 5, 5, 2, 1]]","[[3, 3, 3, 3, 3], [3, 3, 3, 3, 3], [1, 1, 1, 1, 1]]","[10, 18, 2]",16,9,2,0.041,0.041,0.0,[],0,5,3,1844,0,122,122,low,False,2,traffic-light-mouselab,13,174685,5,1,0,2,0,4
traffic-light-mouselab,False,3,1,[],"[[5, 5, 2, 6, 8], [2, 6, 4, 5, 7], [5, 6, 6, 7, 7]]","[[1, 1, 1, 1, 1], [3, 3, 3, 3, 3], [3, 3, 3, 3, 3]]","[10, 2, 18]",16,10,0,0.048,0.048,0.0,[],0,5,3,1450,0,144,144,medium,False,0,traffic-light-mouselab,14,177427,5,0,0,10,0,4
traffic-light-mouselab,False,3,1,[],"[[5, 3, 6, 4, 5], [4, 8, 6, 5, 9], [5, 5, 4, 2, 4]]","[[1, 1, 1, 1, 1], [3, 3, 3, 3, 3], [3, 3, 3, 3, 3]]","[10, 18, 2]",16,11,1,0.061,0.061,0.0,[],0,5,3,1093,0,184,184,medium,False,0,traffic-light-mouselab,15,179885,3,0,0,10,0,4
traffic-light-mouselab,False,3,1,[],"[[3, 6, 8, 3, 4], [7, 2, 6, 5, 5], [6, 5, 9, 4, 4]]","[[3, 3, 3, 3, 3], [3, 3, 3, 3, 3], [3, 3, 3, 3, 3]]","[18, 2, 10]",16,12,2,0.082,0.082,0.0,[],0,5,3,857,0,246,246,hi,True,0,traffic-light-mouselab,16,182367,8,1,0,18,0,4
traffic-light-mouselab,False,3,1,[],"[[5, 8, 8, 4, 6], [6, 4, 4, 9, 2], [4, 6, 5, 6, 7]]","[[3, 3, 3, 3, 3], [1, 1, 1, 1, 1], [3, 3, 3, 3, 3]]","[10, 2, 18]",16,13,2,0.059,0.059,0.0,[],0,5,3,1242,0,178,178,low,False,1,traffic-light-mouselab,17,185085,4,0,0,2,0,4
traffic-light-mouselab,False,3,1,[],"[[5, 8, 6, 4, 7], [3, 5, 6, 10, 5], [5, 8, 5, 7, 2]]","[[1, 1, 1, 1, 1], [3, 3, 3, 3, 3], [3, 3, 3, 3, 3]]","[18, 2, 10]",16,14,3,0.054,0.054,0.0,[],0,5,3,1229,0,162,162,hi,False,0,traffic-light-mouselab,18,188008,4,0,0,18,0,4
traffic-light-mouselab,False,3,1,[],"[[5, 6, 7, 7, 4], [6, 8, 2, 5, 4], [4, 3, 8, 4, 3]]","[[1, 1, 1, 1, 1], [3, 3, 3, 3, 3], [3, 3, 3, 3, 3]]","[18, 2, 10]",16,15,4,0.037,0.037,0.0,[],0,5,3,1361,0,110,110,hi,False,0,traffic-light-mouselab,19,190931,4,0,0,18,0,4
traffic-light-mouselab,False,3,1,[],"[[5, 6, 5, 3, 4], [6, 2, 2, 4, 4], [4, 7, 8, 4, 5]]","[[3, 3, 3, 3, 3], [3, 3, 3, 3, 3], [3, 3, 3, 3, 3]]","[10, 18, 2]",16,16,2,0.034,0.034,0.0,[],0,5,3,1330,0,102,102,medium,True,0,traffic-light-mouselab,20,193593,5,0,0,10,0,4
traffic-light-mouselab,False,3,1,[],"[[5, 0, 4, 5, 8], [5, 4, 5, 3, 5], [6, 3, 5, 3, 8]]","[[3, 3, 3, 3, 3], [1, 1, 1, 1, 1], [3, 3, 3, 3, 3]]","[2, 18, 10]",16,17,0,0.053,0.053,0.0,[],0,5,3,1001,0,160,160,hi,False,1,traffic-light-mouselab,21,195890,5,1,0,18,0,4
traffic-light-mouselab,False,3,1,[],"[[6, 5, 6, 4, 2], [5, 8, 8, 4, 2], [7, 4, 7, 4, 5]]","[[1, 1, 1, 1, 1], [3, 3, 3, 3, 3], [3, 3, 3, 3, 3]]","[18, 10, 2]",16,18,1,0.059,0.059,0.0,[],0,5,3,1401,0,178,178,hi,False,0,traffic-light-mouselab,22,198568,5,0,0,18,0,4
traffic-light-mouselab,False,3,1,[],"[[2, 6, 4, 3, 5], [2, 3, 5, 6, 4], [6, 7, 2, 7, 2]]","[[1, 1, 1, 1, 1], [3, 3, 3, 3, 3], [3, 3, 3, 3, 3]]","[18, 2, 10]",16,19,2,0.034,0.034,0.0,[],0,5,3,881,0,102,102,hi,False,0,traffic-light-mouselab,23,201025,4,0,0,18,0,4
traffic-light-mouselab,False,3,1,[],"[[2, 4, 3, 7, 4], [6, 6, 4, 6, 7], [5, 9, 5, 6, 5]]","[[3, 3, 3, 3, 3], [3, 3, 3, 3, 3], [3, 3, 3, 3, 3]]","[10, 18, 2]",16,20,2,0.037,0.037,0.0,[],0,5,3,1105,0,112,112,hi,True,1,traffic-light-mouselab,24,203422,4,0,0,18,0,4
traffic-light-mouselab,False,3,1,[],"[[2, 3, 7, 1, 7], [7, 5, 6, 6, 7], [9, 8, 4, 4, 6]]","[[1, 1, 1, 1, 1], [3, 3, 3, 3, 3], [3, 3, 3, 3, 3]]","[10, 18, 2]",16,21,1,0.045,0.045,0.0,[],0,5,3,1068,0,136,136,medium,False,0,traffic-light-mouselab,25,207724,3,0,0,10,0,4
traffic-light-mouselab,False,3,1,[],"[[6, 4, 1, 5, 5], [4, 5, 3, 9, 4], [6, 8, 2, 5, 5]]","[[3, 3, 3, 3, 3], [3, 3, 3, 3, 3], [3, 3, 3, 3, 3]]","[10, 18, 2]",16,22,1,0.049,0.049,0.0,[],0,5,3,2071,0,146,146,low,True,2,traffic-light-mouselab,26,212972,8,1,0,2,0,4
traffic-light-mouselab,False,3,1,[],"[[5, 8, 3, 5, 6], [3, 5, 4, 4, 7], [7, 9, 5, 3, 3]]","[[3, 3, 3, 3, 3], [3, 3, 3, 3, 3], [3, 3, 3, 3, 3]]","[10, 2, 18]",16,23,1,0.084,0.084,0.0,[],0,5,3,1258,0,252,252,medium,True,0,traffic-light-mouselab,27,217584,8,1,0,10,0,4
traffic-light-mouselab,False,3,1,[],"[[7, 2, 9, 6, 6], [4, 2, 8, 7, 6], [2, 7, 5, 8, 4]]","[[3, 3, 3, 3, 3], [3, 3, 3, 3, 3], [3, 3, 3, 3, 3]]","[18, 2, 10]",16,24,1,0.037,0.037,0.0,[],0,5,3,1450,0,110,110,low,True,1,traffic-light-mouselab,28,220494,2,0,0,2,0,4
traffic-light-mouselab,False,3,1,[],"[[7, 5, 6, 5, 7], [6, 5, 2, 2, 8], [5, 4, 7, 6, 4]]","[[3, 3, 3, 3, 3], [1, 1, 1, 1, 1], [3, 3, 3, 3, 3]]","[18, 2, 10]",16,25,2,0.061,0.061,0.0,[],0,5,3,881,0,182,182,low,False,1,traffic-light-mouselab,29,222759,2,0,0,2,0,4
traffic-light-mouselab,False,3,1,[],"[[3, 5, 6, 7, 3], [5, 3, 5, 5, 3], [6, 5, 6, 4, 3]]","[[3, 3, 3, 3, 3], [3, 3, 3, 3, 3], [3, 3, 3, 3, 3]]","[18, 2, 10]",16,26,2,0.059,0.059,0.0,[],0,5,3,881,0,178,178,low,True,1,traffic-light-mouselab,30,225279,5,1,0,2,0,4
traffic-light-mouselab,False,3,1,[],"[[4, 2, 5, 8, 4], [7, 7, 7, 6, 3], [3, 8, 6, 2, 5]]","[[3, 3, 3, 3, 3], [3, 3, 3, 3, 3], [3, 3, 3, 3, 3]]","[2, 10, 18]",16,27,4,0.043,0.043,0.0,[],0,5,3,1493,0,128,128,hi,True,2,traffic-light-mouselab,31,228722,5,0,0,18,0,4
traffic-light-mouselab,False,3,1,[],"[[6, 6, 6, 7, 6], [8, 4, 7, 4, 2], [1, 7, 0, 5, 4]]","[[3, 3, 3, 3, 3], [3, 3, 3, 3, 3], [3, 3, 3, 3, 3]]","[10, 2, 18]",16,28,4,0.045,0.045,0.0,[],0,5,3,1265,0,136,136,medium,True,0,traffic-light-mouselab,32,231332,6,0,0,10,0,4
traffic-light-mouselab,False,3,1,[],"[[4, 5, 8, 4, 2], [6, 9, 5, 7, 4], [5, 3, 2, 8, 5]]","[[3, 3, 3, 3, 3], [3, 3, 3, 3, 3], [3, 3, 3, 3, 3]]","[18, 2, 10]",16,29,4,0.031,0.031,0.0,[],0,5,3,1009,0,94,94,hi,True,0,traffic-light-mouselab,33,233633,2,0,0,18,0,4
traffic-light-mouselab,False,3,1,[],"[[2, 5, 4, 5, 2], [5, 8, 6, 4, 6], [3, 5, 5, 6, 6]]","[[3, 3, 3, 3, 3], [3, 3, 3, 3, 3], [3, 3, 3, 3, 3]]","[10, 18, 2]",16,30,0,0.039,0.039,0.0,[],0,5,3,1054,0,116,116,medium,True,0,traffic-light-mouselab,34,236075,2,0,0,10,0,4
traffic-light-mouselab,False,3,1,[],"[[2, 7, 6, 3, 6], [7, 4, 3, 6, 5], [6, 4, 10, 6, 2]]","[[3, 3, 3, 3, 3], [3, 3, 3, 3, 3], [3, 3, 3, 3, 3]]","[10, 2, 18]",16,31,2,0.082,0.082,0.0,[],0,5,3,977,0,246,246,low,True,1,traffic-light-mouselab,35,239131,3,0,0,2,0,4
traffic-light-mouselab,False,3,1,[],"[[4, 2, 6, 4, 5], [6, 5, 5, 7, 3], [5, 4, 5, 2, 5]]","[[1, 1, 1, 1, 1], [3, 3, 3, 3, 3], [3, 3, 3, 3, 3]]","[10, 2, 18]",16,32,1,0.034,0.034,0.0,[],0,5,3,1477,0,102,102,medium,False,0,traffic-light-mouselab,36,241875,2,0,0,10,0,4
traffic-light-mouselab,True,3,1,"[0, 7, 14, 10, 5, 1, 6, 11, 12, 2, 3, 8, 13, 4, 9]","[[5, 4, 6, 6, 2], [3, 7, 4, 6, 5], [1, 5, 4, 4, 4]]","[[2, 2, 2, 2, 2], [2, 2, 2, 2, 2], [2, 2, 2, 2, 2]]","[18, 10, 2]",16,1,3,0.059,0.054,0.005,[],0,5,3,82610,15,176,161,medium,True,1,traffic-light-mouselab,4,506612,6,0,5,10,0,5
traffic-light-mouselab,True,3,1,[1],"[[4, 5, 6, 5, 4], [10, 8, 6, 6, 3], [5, 5, 5, 7, 4]]","[[3, 2, 3, 3, 3], [1, 1, 1, 1, 1], [3, 3, 3, 3, 3]]","[2, 18, 10]",16,2,1,0.068,0.06766666666666667,0.0003333333333333333,[],0,5,3,5334,1,204,203,hi,False,1,traffic-light-mouselab,5,522086,8,0,0,18,0,5
traffic-light-mouselab,False,3,1,[2],"[[3, 5, 2, 5, 4], [7, 7, 4, 6, 6], [8, 7, 6, 0, 2]]","[[1, 1, 0, 1, 1], [3, 3, 3, 3, 3], [3, 3, 3, 3, 3]]","[10, 2, 18]",16,3,2,0.045,0.04466666666666667,0.0003333333333333333,[2],1,5,3,6348,1,136,135,medium,False,0,traffic-light-mouselab,7,538669,2,0,1,10,1,5
traffic-light-mouselab,False,3,1,[0],"[[4, 6, 4, 7, 3], [9, 4, 4, 6, 3], [3, 6, 7, 5, 1]]","[[2, 3, 3, 3, 3], [3, 3, 3, 3, 3], [1, 1, 1, 1, 1]]","[10, 2, 18]",16,4,0,0.037,0.03666666666666667,0.0003333333333333333,[],0,5,3,3081,1,112,111,hi,False,2,traffic-light-mouselab,8,545118,3,0,0,18,0,5
traffic-light-mouselab,False,3,1,[4],"[[3, 3, 7, 5, 5], [5, 8, 4, 4, 7], [6, 6, 4, 5, 5]]","[[3, 3, 3, 3, 2], [3, 3, 3, 3, 3], [3, 3, 3, 3, 3]]","[2, 10, 18]",16,5,4,0.057,0.05666666666666667,0.0003333333333333333,[],0,5,3,4673,1,170,169,low,True,0,traffic-light-mouselab,9,552812,5,0,1,2,0,5
traffic-light-mouselab,False,3,1,[],"[[5, 8, 5, 5, 6], [6, 4, 5, 4, 7], [6, 2, 5, 3, 6]]","[[3, 3, 3, 3, 3], [3, 3, 3, 3, 3], [3, 3, 3, 3, 3]]","[18, 10, 2]",16,6,2,0.05,0.05,0.0,[],0,5,3,1831,0,150,150,medium,True,1,traffic-light-mouselab,10,560250,5,0,0,10,0,5
traffic-light-mouselab,False,3,1,[5],"[[7, 5, 3, 4, 4], [6, 3, 4, 2, 4], [7, 6, 4, 6, 4]]","[[3, 3, 3, 3, 3], [0, 1, 1, 1, 1], [3, 3, 3, 3, 3]]","[10, 2, 18]",16,7,0,0.069,0.06866666666666667,0.0003333333333333333,[5],1,5,3,4995,1,208,207,low,False,1,traffic-light-mouselab,11,568121,6,1,1,2,1,5
traffic-light-mouselab,False,3,1,[12],"[[7, 6, 7, 8, 4], [6, 6, 4, 7, 7], [7, 5, 5, 6, 3]]","[[3, 3, 3, 3, 3], [3, 3, 3, 3, 3], [3, 3, 2, 3, 3]]","[18, 2, 10]",16,8,2,0.061,0.06066666666666667,0.0003333333333333333,[],0,5,3,3057,1,184,183,hi,True,0,traffic-light-mouselab,12,573665,7,0,0,18,0,5
traffic-light-mouselab,False,3,1,[11],"[[6, 7, 5, 7, 4], [3, 4, 4, 2, 4], [3, 4, 7, 6, 6]]","[[1, 1, 1, 1, 1], [3, 3, 3, 3, 3], [3, 2, 3, 3, 3]]","[2, 18, 10]",16,9,1,0.042,0.04166666666666667,0.0003333333333333333,[],0,5,3,3372,1,126,125,low,False,0,traffic-light-mouselab,13,579074,7,1,0,2,0,5
traffic-light-mouselab,False,3,1,[4],"[[7, 5, 5, 5, 5], [5, 5, 5, 2, 7], [3, 2, 5, 6, 9]]","[[3, 3, 3, 3, 2], [3, 3, 3, 3, 3], [3, 3, 3, 3, 3]]","[10, 18, 2]",16,10,4,0.065,0.06466666666666666,0.0003333333333333333,[],0,5,3,3107,1,194,193,hi,True,1,traffic-light-mouselab,14,584815,7,1,0,18,0,5
traffic-light-mouselab,False,3,1,[4],"[[6, 4, 5, 7, 7], [4, 4, 1, 0, 5], [4, 6, 7, 7, 5]]","[[3, 3, 3, 3, 2], [3, 3, 3, 3, 3], [3, 3, 3, 3, 3]]","[10, 18, 2]",16,11,4,0.057,0.05666666666666667,0.0003333333333333333,[],0,5,3,3106,1,170,169,low,True,2,traffic-light-mouselab,15,590167,5,0,0,2,0,5
traffic-light-mouselab,False,3,1,[0],"[[2, 5, 2, 9, 5], [6, 6, 6, 9, 7], [7, 3, 5, 8, 5]]","[[2, 3, 3, 3, 3], [3, 3, 3, 3, 3], [1, 1, 1, 1, 1]]","[2, 18, 10]",16,12,0,0.061,0.06066666666666667,0.0003333333333333333,[],0,5,3,5737,1,182,181,medium,False,2,traffic-light-mouselab,16,598774,7,0,0,10,0,5
traffic-light-mouselab,False,3,1,[],"[[8, 5, 4, 4, 7], [6, 4, 7, 4, 6], [6, 5, 6, 9, 7]]","[[3, 3, 3, 3, 3], [1, 1, 1, 1, 1], [3, 3, 3, 3, 3]]","[18, 2, 10]",16,13,1,0.049,0.049,0.0,[],0,5,3,4092,0,148,148,low,False,1,traffic-light-mouselab,17,607631,4,0,0,2,0,5
traffic-light-mouselab,False,3,1,[2],"[[4, 6, 6, 8, 6], [4, 6, 5, 1, 4], [4, 4, 2, 3, 6]]","[[3, 3, 2, 3, 3], [3, 3, 3, 3, 3], [3, 3, 3, 3, 3]]","[10, 18, 2]",16,14,2,0.051,0.050666666666666665,0.0003333333333333333,[],0,5,3,4232,1,154,153,hi,True,1,traffic-light-mouselab,18,614790,5,0,0,18,0,5
traffic-light-mouselab,False,3,1,"[10, 11]","[[6, 6, 4, 7, 5], [4, 4, 5, 3, 2], [5, 4, 3, 3, 5]]","[[1, 1, 1, 1, 1], [3, 3, 3, 3, 3], [2, 2, 3, 3, 3]]","[10, 2, 18]",16,15,1,0.047,0.04633333333333333,0.0006666666666666666,[],0,5,3,5589,2,140,138,medium,False,0,traffic-light-mouselab,19,623682,6,0,0,10,0,5
traffic-light-mouselab,False,3,1,[],"[[6, 6, 5, 5, 5], [7, 3, 5, 4, 6], [4, 5, 3, 5, 6]]","[[3, 3, 3, 3, 3], [3, 3, 3, 3, 3], [3, 3, 3, 3, 3]]","[18, 2, 10]",16,16,4,0.054,0.054,0.0,[],0,5,3,2732,0,162,162,low,True,1,traffic-light-mouselab,20,630599,6,0,0,2,0,5
traffic-light-mouselab,False,3,1,[],"[[8, 5, 6, 5, 7], [5, 7, 6, 6, 2], [6, 6, 4, 3, 7]]","[[3, 3, 3, 3, 3], [3, 3, 3, 3, 3], [1, 1, 1, 1, 1]]","[2, 10, 18]",16,17,1,0.063,0.063,0.0,[],0,5,3,2447,0,188,188,hi,False,2,traffic-light-mouselab,21,635828,6,0,0,18,0,5
traffic-light-mouselab,False,3,1,[],"[[6, 7, 4, 4, 4], [7, 7, 5, 5, 8], [5, 6, 5, 8, 6]]","[[1, 1, 1, 1, 1], [3, 3, 3, 3, 3], [3, 3, 3, 3, 3]]","[10, 2, 18]",16,18,0,0.055,0.055,0.0,[],0,5,3,1486,0,164,164,medium,False,0,traffic-light-mouselab,22,639467,6,0,0,10,0,5
traffic-light-mouselab,False,3,1,[],"[[6, 4, 3, 6, 4], [3, 5, 3, 4, 5], [4, 7, 5, 7, 5]]","[[3, 3, 3, 3, 3], [1, 1, 1, 1, 1], [3, 3, 3, 3, 3]]","[10, 2, 18]",16,19,3,0.065,0.065,0.0,[],0,5,3,1666,0,194,194,low,False,1,traffic-light-mouselab,23,642645,4,0,0,2,0,5
traffic-light-mouselab,False,3,1,[],"[[3, 4, 2, 5, 3], [5, 4, 8, 9, 7], [3, 3, 2, 7, 7]]","[[3, 3, 3, 3, 3], [1, 1, 1, 1, 1], [3, 3, 3, 3, 3]]","[2, 10, 18]",16,20,4,0.067,0.067,0.0,[],0,5,3,1296,0,202,202,medium,False,1,traffic-light-mouselab,24,645759,7,0,0,10,0,5
traffic-light-mouselab,False,3,1,[],"[[6, 3, 9, 4, 2], [2, 5, 8, 5, 7], [8, 4, 5, 5, 4]]","[[3, 3, 3, 3, 3], [1, 1, 1, 1, 1], [3, 3, 3, 3, 3]]","[10, 2, 18]",16,21,0,0.069,0.069,0.0,[],0,5,3,1752,0,208,208,low,False,1,traffic-light-mouselab,25,651772,2,0,0,2,0,5
traffic-light-mouselab,False,3,1,"[1, 1]","[[8, 3, 6, 1, 5], [3, 9, 6, 7, 4], [6, 6, 3, 6, 8]]","[[3, 1, 3, 3, 3], [3, 3, 3, 3, 3], [3, 3, 3, 3, 3]]","[10, 2, 18]",16,22,1,0.052,0.05133333333333333,0.0006666666666666666,[],0,5,3,6608,2,156,154,medium,True,0,traffic-light-mouselab,26,661252,3,0,2,10,0,5
traffic-light-mouselab,False,3,1,"[7, 8]","[[4, 4, 1, 5, 4], [8, 5, 4, 3, 2], [5, 5, 6, 6, 5]]","[[3, 3, 3, 3, 3], [1, 1, 0, 0, 1], [3, 3, 3, 3, 3]]","[2, 18, 10]",16,23,2,0.045,0.04433333333333333,0.0006666666666666666,"[7, 8]",2,5,3,11851,2,134,132,hi,False,1,traffic-light-mouselab,27,676529,4,0,2,18,2,5
traffic-light-mouselab,False,3,1,"[5, 5, 5]","[[5, 8, 5, 5, 7], [4, 1, 7, 4, 5], [4, 5, 4, 1, 5]]","[[3, 3, 3, 3, 3], [0, 3, 3, 3, 3], [3, 3, 3, 3, 3]]","[18, 10, 2]",16,24,0,0.046,0.045,0.001,[5],1,5,3,8043,3,138,135,low,True,2,traffic-light-mouselab,28,686640,4,0,0,2,0,5
traffic-light-mouselab,False,3,1,[],"[[3, 4, 2, 5, 4], [5, 3, 4, 5, 9], [6, 5, 4, 4, 4]]","[[1, 1, 1, 1, 1], [3, 3, 3, 3, 3], [3, 3, 3, 3, 3]]","[18, 2, 10]",16,25,4,0.043,0.043,0.0,[],0,5,3,2327,0,130,130,hi,False,0,traffic-light-mouselab,29,692392,4,0,0,18,0,5
traffic-light-mouselab,False,3,1,[],"[[9, 4, 6, 5, 7], [5, 4, 6, 3, 6], [3, 4, 3, 6, 4]]","[[3, 3, 3, 3, 3], [3, 3, 3, 3, 3], [3, 3, 3, 3, 3]]","[2, 18, 10]",16,26,4,0.054,0.054,0.0,[],0,5,3,2001,0,162,162,low,True,0,traffic-light-mouselab,30,696210,7,0,0,2,0,5
traffic-light-mouselab,False,3,1,[],"[[3, 5, 3, 7, 3], [4, 10, 4, 6, 5], [7, 4, 4, 7, 5]]","[[1, 1, 1, 1, 1], [3, 3, 3, 3, 3], [3, 3, 3, 3, 3]]","[18, 2, 10]",16,27,0,0.044,0.044,0.0,[],0,5,3,1670,0,132,132,hi,False,0,traffic-light-mouselab,31,699714,3,0,0,18,0,5
traffic-light-mouselab,False,3,1,[],"[[7, 6, 6, 6, 4], [4, 6, 7, 6, 4], [6, 5, 4, 5, 6]]","[[3, 3, 3, 3, 3], [3, 3, 3, 3, 3], [3, 3, 3, 3, 3]]","[10, 2, 18]",16,28,2,0.049,0.049,0.0,[],0,5,3,1337,0,146,146,hi,True,2,traffic-light-mouselab,32,703324,4,0,0,18,0,5
traffic-light-mouselab,False,3,1,[],"[[7, 7, 5, 5, 5], [5, 6, 5, 10, 4], [4, 3, 6, 4, 4]]","[[3, 3, 3, 3, 3], [3, 3, 3, 3, 3], [3, 3, 3, 3, 3]]","[2, 18, 10]",16,29,1,0.051,0.051,0.0,[],0,5,3,1661,0,152,152,medium,True,2,traffic-light-mouselab,33,707187,3,0,0,10,0,5
traffic-light-mouselab,False,3,1,[],"[[3, 6, 6, 6, 5], [4, 6, 4, 8, 5], [5, 5, 3, 4, 6]]","[[3, 3, 3, 3, 3], [3, 3, 3, 3, 3], [3, 3, 3, 3, 3]]","[18, 10, 2]",16,30,1,0.059,0.059,0.0,[],0,5,3,2327,0,178,178,medium,True,1,traffic-light-mouselab,34,711467,6,0,0,10,0,5
traffic-light-mouselab,False,3,1,[],"[[10, 5, 2, 5, 2], [6, 1, 6, 5, 4], [3, 3, 7, 3, 3]]","[[3, 3, 3, 3, 3], [3, 3, 3, 3, 3], [3, 3, 3, 3, 3]]","[2, 10, 18]",16,31,2,0.063,0.063,0.0,[],0,5,3,1610,0,190,190,medium,True,1,traffic-light-mouselab,35,715234,6,1,0,10,0,5
traffic-light-mouselab,False,3,1,[],"[[6, 4, 6, 4, 5], [9, 4, 3, 7, 2], [4, 5, 7, 4, 5]]","[[3, 3, 3, 3, 3], [3, 3, 3, 3, 3], [3, 3, 3, 3, 3]]","[10, 2, 18]",16,32,1,0.046,0.046,0.0,[],0,5,3,2792,0,138,138,hi,True,2,traffic-light-mouselab,36,719886,5,0,0,18,0,5
traffic-light-mouselab,True,3,1,[],"[[7, 8, 5, 7, 5], [3, 3, 7, 4, 5], [6, 5, 6, 4, 5]]","[[3, 3, 3, 3, 3], [1, 1, 1, 1, 1], [3, 3, 3, 3, 3]]","[10, 2, 18]",16,1,1,0.059,0.059,0.0,[],0,5,3,6029,0,176,176,low,False,1,traffic-light-mouselab,4,223690,3,0,0,2,0,6
traffic-light-mouselab,True,3,1,[],"[[6, 7, 5, 7, 2], [6, 5, 6, 4, 6], [5, 2, 4, 2, 3]]","[[3, 3, 3, 3, 3], [3, 3, 3, 3, 3], [3, 3, 3, 3, 3]]","[18, 10, 2]",16,2,3,0.057,0.057,0.0,[],0,5,3,2005,0,170,170,low,True,2,traffic-light-mouselab,5,229210,2,0,0,2,0,6
traffic-light-mouselab,False,3,1,[],"[[6, 2, 8, 4, 7], [4, 8, 4, 9, 2], [9, 6, 6, 6, 1]]","[[3, 3, 3, 3, 3], [3, 3, 3, 3, 3], [1, 1, 1, 1, 1]]","[2, 18, 10]",16,3,0,0.058,0.058,0.0,[],0,5,3,4538,0,174,174,medium,False,2,traffic-light-mouselab,7,244805,9,1,0,10,0,6
traffic-light-mouselab,False,3,1,[],"[[6, 6, 10, 3, 7], [7, 0, 6, 8, 6], [2, 3, 3, 4, 5]]","[[1, 1, 1, 1, 1], [3, 3, 3, 3, 3], [3, 3, 3, 3, 3]]","[10, 18, 2]",16,4,1,0.022,0.022,0.0,[],0,5,3,3082,0,66,66,medium,False,0,traffic-light-mouselab,8,250880,6,0,0,10,0,6
traffic-light-mouselab,False,3,1,"[12, 3, 0]","[[6, 7, 4, 4, 4], [6, 7, 8, 6, 5], [9, 5, 3, 6, 6]]","[[0, 1, 1, 0, 1], [3, 3, 3, 3, 3], [3, 3, 2, 3, 3]]","[10, 2, 18]",16,5,0,0.078,0.077,0.001,"[3, 0]",2,5,3,14202,3,234,231,medium,False,0,traffic-light-mouselab,9,268026,6,0,2,10,2,6
traffic-light-mouselab,False,3,1,[],"[[5, 7, 4, 3, 4], [6, 8, 4, 4, 5], [7, 2, 6, 5, 5]]","[[3, 3, 3, 3, 3], [3, 3, 3, 3, 3], [3, 3, 3, 3, 3]]","[18, 2, 10]",16,6,4,0.044,0.044,0.0,[],0,5,3,3431,0,132,132,hi,True,0,traffic-light-mouselab,10,274556,4,0,0,18,0,6
traffic-light-mouselab,False,3,1,"[6, 8]","[[6, 5, 6, 5, 7], [7, 7, 7, 3, 3], [6, 6, 3, 3, 6]]","[[3, 3, 3, 3, 3], [1, 0, 1, 0, 1], [3, 3, 3, 3, 3]]","[18, 10, 2]",16,7,1,0.057,0.05633333333333333,0.0006666666666666666,"[6, 8]",2,5,3,7460,2,172,170,medium,False,1,traffic-light-mouselab,11,284230,7,1,2,10,2,6
traffic-light-mouselab,False,3,1,[0],"[[7, 3, 8, 3, 3], [6, 6, 6, 6, 3], [2, 6, 4, 3, 5]]","[[0, 1, 1, 1, 1], [3, 3, 3, 3, 3], [3, 3, 3, 3, 3]]","[18, 10, 2]",16,8,0,0.063,0.06266666666666666,0.0003333333333333333,[0],1,5,3,4460,1,190,189,hi,False,0,traffic-light-mouselab,12,290731,7,0,1,18,1,6
traffic-light-mouselab,False,3,1,[],"[[4, 5, 2, 4, 6], [6, 4, 4, 3, 6], [5, 6, 6, 4, 6]]","[[3, 3, 3, 3, 3], [3, 3, 3, 3, 3], [3, 3, 3, 3, 3]]","[18, 10, 2]",16,9,2,0.029,0.029,0.0,[],0,5,3,2196,0,88,88,low,True,2,traffic-light-mouselab,13,295681,6,1,0,2,0,6
traffic-light-mouselab,False,3,1,[],"[[7, 6, 7, 7, 7], [3, 4, 4, 3, 3], [5, 5, 6, 0, 4]]","[[3, 3, 3, 3, 3], [3, 3, 3, 3, 3], [3, 3, 3, 3, 3]]","[10, 18, 2]",16,10,3,0.041,0.041,0.0,[],0,5,3,3755,0,124,124,low,True,2,traffic-light-mouselab,14,301727,0,0,0,2,0,6
traffic-light-mouselab,False,3,1,"[0, 3, 1]","[[3, 7, 5, 5, 6], [6, 3, 4, 4, 7], [5, 4, 5, 7, 5]]","[[0, 0, 1, 0, 1], [3, 3, 3, 3, 3], [3, 3, 3, 3, 3]]","[18, 10, 2]",16,11,1,0.055,0.054,0.001,"[0, 3, 1]",3,5,3,8014,3,164,161,hi,False,0,traffic-light-mouselab,15,313837,7,1,3,18,3,6
traffic-light-mouselab,False,3,1,[],"[[5, 6, 5, 5, 4], [5, 3, 5, 4, 3], [5, 7, 4, 4, 4]]","[[3, 3, 3, 3, 3], [3, 3, 3, 3, 3], [3, 3, 3, 3, 3]]","[2, 18, 10]",16,12,2,0.047,0.047,0.0,[],0,5,3,2729,0,140,140,low,True,0,traffic-light-mouselab,16,318454,5,0,0,2,0,6
traffic-light-mouselab,False,3,1,[],"[[5, 6, 5, 6, 4], [5, 8, 7, 5, 5], [3, 2, 1, 8, 5]]","[[1, 1, 1, 1, 1], [3, 3, 3, 3, 3], [3, 3, 3, 3, 3]]","[2, 18, 10]",16,13,1,0.059,0.059,0.0,[],0,5,3,2920,0,176,176,low,False,0,traffic-light-mouselab,17,323272,6,1,0,2,0,6
traffic-light-mouselab,False,3,1,[],"[[6, 8, 5, 6, 6], [4, 3, 2, 4, 8], [6, 3, 9, 3, 5]]","[[3, 3, 3, 3, 3], [3, 3, 3, 3, 3], [3, 3, 3, 3, 3]]","[2, 10, 18]",16,14,1,0.033,0.033,0.0,[],0,5,3,3052,0,100,100,medium,True,1,traffic-light-mouselab,18,329203,3,0,0,10,0,6
traffic-light-mouselab,False,3,1,[],"[[5, 4, 5, 2, 5], [10, 4, 6, 4, 7], [9, 3, 4, 2, 8]]","[[3, 3, 3, 3, 3], [3, 3, 3, 3, 3], [3, 3, 3, 3, 3]]","[10, 2, 18]",16,15,2,0.045,0.045,0.0,[],0,5,3,2356,0,134,134,hi,True,2,traffic-light-mouselab,19,334249,4,0,0,18,0,6
traffic-light-mouselab,False,3,1,[],"[[4, 4, 7, 6, 5], [2, 5, 3, 5, 6], [4, 7, 3, 5, 3]]","[[3, 3, 3, 3, 3], [3, 3, 3, 3, 3], [3, 3, 3, 3, 3]]","[10, 2, 18]",16,16,3,0.053,0.053,0.0,[],0,5,3,2626,0,160,160,medium,True,0,traffic-light-mouselab,20,340094,6,0,0,10,0,6
traffic-light-mouselab,False,3,1,[],"[[4, 4, 6, 8, 5], [3, 4, 5, 4, 5], [9, 7, 4, 5, 5]]","[[3, 3, 3, 3, 3], [3, 3, 3, 3, 3], [3, 3, 3, 3, 3]]","[2, 18, 10]",16,17,2,0.047,0.047,0.0,[],0,5,3,1825,0,142,142,medium,True,2,traffic-light-mouselab,21,343550,4,0,0,10,0,6
traffic-light-mouselab,False,3,1,[],"[[6, 3, 5, 2, 5], [4, 6, 7, 4, 2], [1, 2, 5, 3, 1]]","[[3, 3, 3, 3, 3], [3, 3, 3, 3, 3], [3, 3, 3, 3, 3]]","[2, 10, 18]",16,18,0,0.023,0.023,0.0,[],0,5,3,2302,0,70,70,hi,True,2,traffic-light-mouselab,22,347303,1,0,0,18,0,6
traffic-light-mouselab,False,3,1,[],"[[5, 5, 9, 2, 4], [7, 6, 4, 8, 6], [6, 5, 2, 5, 6]]","[[1, 1, 1, 1, 1], [3, 3, 3, 3, 3], [3, 3, 3, 3, 3]]","[2, 10, 18]",16,19,1,0.053,0.053,0.0,[],0,5,3,2300,0,160,160,low,False,0,traffic-light-mouselab,23,351121,5,0,0,2,0,6
traffic-light-mouselab,False,3,1,[],"[[5, 6, 5, 7, 5], [5, 6, 7, 6, 8], [5, 6, 3, 4, 5]]","[[3, 3, 3, 3, 3], [3, 3, 3, 3, 3], [3, 3, 3, 3, 3]]","[2, 10, 18]",16,20,1,0.06,0.06,0.0,[],0,5,3,2308,0,180,180,hi,True,2,traffic-light-mouselab,24,355537,6,1,0,18,0,6
traffic-light-mouselab,False,3,1,[],"[[3, 5, 6, 5, 4], [7, 4, 7, 10, 10], [6, 6, 6, 6, 9]]","[[3, 3, 3, 3, 3], [1, 1, 1, 1, 1], [3, 3, 3, 3, 3]]","[2, 10, 18]",16,21,1,0.053,0.053,0.0,[],0,5,3,2995,0,158,158,medium,False,1,traffic-light-mouselab,25,361134,4,0,0,10,0,6
traffic-light-mouselab,False,3,1,[],"[[5, 9, 3, 5, 7], [6, 4, 2, 4, 4], [3, 7, 4, 3, 6]]","[[3, 3, 3, 3, 3], [3, 3, 3, 3, 3], [3, 3, 3, 3, 3]]","[2, 18, 10]",16,22,1,0.053,0.053,0.0,[],0,5,3,2340,0,160,160,low,True,0,traffic-light-mouselab,26,365305,9,1,0,2,0,6
traffic-light-mouselab,False,3,1,[],"[[3, 5, 6, 4, 3], [6, 4, 3, 6, 6], [7, 6, 6, 7, 1]]","[[3, 3, 3, 3, 3], [3, 3, 3, 3, 3], [3, 3, 3, 3, 3]]","[2, 18, 10]",16,23,1,0.047,0.047,0.0,[],0,5,3,2264,0,142,142,medium,True,2,traffic-light-mouselab,27,369388,6,0,0,10,0,6
traffic-light-mouselab,False,3,1,[],"[[3, 4, 7, 4, 5], [7, 5, 4, 4, 6], [7, 5, 6, 4, 4]]","[[3, 3, 3, 3, 3], [3, 3, 3, 3, 3], [3, 3, 3, 3, 3]]","[10, 2, 18]",16,24,1,0.047,0.047,0.0,[],0,5,3,2377,0,140,140,medium,True,0,traffic-light-mouselab,28,373273,4,0,0,10,0,6
traffic-light-mouselab,False,3,1,[],"[[8, 3, 5, 7, 3], [6, 6, 5, 6, 4], [7, 7, 3, 2, 5]]","[[3, 3, 3, 3, 3], [3, 3, 3, 3, 3], [3, 3, 3, 3, 3]]","[2, 10, 18]",16,25,2,0.038,0.038,0.0,[],0,5,3,2044,0,114,114,hi,True,2,traffic-light-mouselab,29,376681,3,0,0,18,0,6
traffic-light-mouselab,False,3,1,[],"[[7, 7, 7, 7, 7], [5, 9, 8, 6, 2], [7, 5, 3, 4, 6]]","[[3, 3, 3, 3, 3], [3, 3, 3, 3, 3], [3, 3, 3, 3, 3]]","[18, 2, 10]",16,26,1,0.065,0.065,0.0,[],0,5,3,1615,0,194,194,low,True,1,traffic-light-mouselab,30,380651,9,1,0,2,0,6
traffic-light-mouselab,False,3,1,[],"[[6, 4, 6, 7, 8], [4, 5, 5, 5, 0], [5, 5, 3, 6, 7]]","[[3, 3, 3, 3, 3], [3, 3, 3, 3, 3], [1, 1, 1, 1, 1]]","[10, 18, 2]",16,27,4,0.031,0.031,0.0,[],0,5,3,3254,0,94,94,low,False,2,traffic-light-mouselab,31,386392,7,1,0,2,0,6
traffic-light-mouselab,False,3,1,[5],"[[4, 3, 2, 3, 6], [8, 6, 5, 2, 8], [7, 3, 7, 4, 5]]","[[3, 3, 3, 3, 3], [0, 1, 1, 1, 1], [3, 3, 3, 3, 3]]","[2, 18, 10]",16,28,0,0.074,0.07366666666666666,0.0003333333333333333,[5],1,5,3,4434,1,222,221,hi,False,1,traffic-light-mouselab,32,392780,8,1,1,18,1,6
traffic-light-mouselab,False,3,1,"[12, 10, 14]","[[5, 4, 8, 3, 7], [3, 2, 4, 3, 5], [1, 7, 1, 4, 5]]","[[3, 3, 3, 3, 3], [3, 3, 3, 3, 3], [0, 1, 0, 1, 0]]","[2, 10, 18]",16,29,4,0.051,0.049999999999999996,0.001,"[12, 10, 14]",3,5,3,8022,3,154,151,hi,False,2,traffic-light-mouselab,33,402576,5,0,3,18,3,6
traffic-light-mouselab,False,3,1,[],"[[7, 2, 5, 2, 2], [5, 6, 5, 3, 5], [6, 6, 6, 5, 5]]","[[1, 1, 1, 1, 1], [3, 3, 3, 3, 3], [3, 3, 3, 3, 3]]","[2, 18, 10]",16,30,1,0.057,0.057,0.0,[],0,5,3,2463,0,172,172,low,False,0,traffic-light-mouselab,34,406498,2,0,0,2,0,6
traffic-light-mouselab,False,3,1,[],"[[4, 2, 7, 8, 6], [7, 6, 5, 5, 4], [5, 4, 3, 5, 3]]","[[3, 3, 3, 3, 3], [1, 1, 1, 1, 1], [3, 3, 3, 3, 3]]","[10, 2, 18]",16,31,2,0.045,0.045,0.0,[],0,5,3,3054,0,134,134,low,False,1,traffic-light-mouselab,35,411221,5,0,0,2,0,6
traffic-light-mouselab,False,3,1,"[6, 8]","[[3, 2, 5, 2, 7], [1, 4, 5, 7, 5], [4, 7, 4, 6, 5]]","[[3, 3, 3, 3, 3], [1, 0, 1, 0, 1], [3, 3, 3, 3, 3]]","[10, 18, 2]",16,32,3,0.053,0.05233333333333333,0.0006666666666666666,"[6, 8]",2,5,3,4710,2,158,156,hi,False,1,traffic-light-mouselab,36,417742,7,1,2,18,2,6
traffic-light-mouselab,True,3,1,"[1, 9, 9, 9, 2, 4, 0, 10, 10, 10, 5, 5, 5]","[[3, 5, 5, 1, 3], [3, 5, 6, 4, 5], [1, 8, 4, 4, 5]]","[[0, 0, 0, 1, 0], [0, 3, 3, 3, 0], [0, 3, 3, 3, 3]]","[18, 2, 10]",16,1,3,0.022,0.017666666666666664,0.004333333333333333,"[1, 9, 2, 4, 0, 10, 5]",7,5,3,39479,13,66,53,hi,False,0,traffic-light-mouselab,4,127163,1,0,4,18,4,7
traffic-light-mouselab,True,3,1,"[11, 11, 11, 1, 1, 1, 9, 9, 9, 14, 14, 14, 5, 5, 5, 0, 0, 0, 3, 3, 3, 7, 7, 7]","[[5, 4, 10, 3, 3], [5, 6, 2, 7, 7], [4, 8, 6, 5, 5]]","[[0, 0, 3, 0, 3], [0, 3, 0, 3, 0], [3, 0, 3, 3, 0]]","[10, 2, 18]",16,2,1,0.065,0.057,0.008,"[11, 1, 9, 14, 5, 0, 3, 7]",8,5,3,33601,24,196,172,medium,True,0,traffic-light-mouselab,5,173101,4,0,9,10,3,7
traffic-light-mouselab,False,3,1,"[2, 2, 2, 0, 0, 0, 4, 4, 4]","[[3, 3, 5, 4, 7], [7, 3, 2, 4, 5], [5, 4, 7, 3, 6]]","[[0, 3, 0, 3, 0], [3, 3, 3, 3, 3], [3, 3, 3, 3, 3]]","[18, 10, 2]",16,3,4,0.063,0.06,0.003,"[2, 0, 4]",3,5,3,12202,9,188,179,low,True,2,traffic-light-mouselab,7,190784,6,0,0,2,0,7
traffic-light-mouselab,False,3,1,"[2, 2, 2, 0, 0, 0, 4, 4, 4, 3, 3, 3, 1, 1, 1]","[[6, 4, 5, 6, 5], [4, 5, 4, 5, 3], [8, 4, 5, 2, 4]]","[[0, 0, 0, 0, 0], [3, 3, 3, 3, 3], [3, 3, 3, 3, 3]]","[18, 2, 10]",16,4,3,0.046,0.041,0.005,"[2, 0, 4, 3, 1]",5,5,3,13262,15,138,123,low,True,1,traffic-light-mouselab,8,206209,5,1,0,2,0,7
traffic-light-mouselab,False,3,1,"[5, 5, 5]","[[3, 7, 3, 7, 5], [6, 4, 8, 5, 4], [2, 5, 6, 4, 5]]","[[3, 3, 3, 3, 3], [0, 3, 3, 3, 3], [3, 3, 3, 3, 3]]","[2, 18, 10]",16,5,0,0.045,0.044,0.001,[5],1,5,3,6751,3,134,131,medium,True,2,traffic-light-mouselab,9,214910,2,0,0,10,0,7
traffic-light-mouselab,False,3,1,"[7, 7, 7]","[[6, 7, 7, 5, 5], [4, 2, 8, 4, 3], [7, 4, 2, 3, 5]]","[[3, 3, 3, 3, 3], [3, 3, 0, 3, 3], [3, 3, 3, 3, 3]]","[10, 18, 2]",16,6,2,0.073,0.072,0.001,[7],1,5,3,4583,3,218,215,hi,True,1,traffic-light-mouselab,10,223550,8,1,3,18,1,7
traffic-light-mouselab,False,3,1,"[11, 11, 11, 13, 13, 13, 8]","[[4, 5, 3, 5, 3], [4, 6, 3, 7, 8], [7, 5, 3, 5, 7]]","[[3, 3, 3, 3, 3], [1, 1, 1, 0, 1], [3, 0, 3, 0, 3]]","[2, 10, 18]",16,7,3,0.057,0.05466666666666667,0.0023333333333333335,"[11, 13, 8]",3,5,3,10479,7,170,163,medium,False,1,traffic-light-mouselab,11,235850,7,0,1,10,1,7
traffic-light-mouselab,False,3,1,"[6, 6, 6, 8, 8, 8, 9, 9, 9, 3]","[[2, 4, 6, 6, 3], [6, 3, 8, 6, 4], [4, 3, 4, 8, 5]]","[[1, 1, 1, 0, 1], [3, 0, 3, 0, 0], [3, 3, 3, 3, 3]]","[2, 18, 10]",16,8,3,0.067,0.06366666666666668,0.0033333333333333335,"[6, 8, 9, 3]",4,5,3,9263,10,200,190,low,False,0,traffic-light-mouselab,12,246820,6,1,1,2,1,7
traffic-light-mouselab,False,3,1,"[5, 5, 5, 7, 7, 7, 8, 8, 8, 6, 6, 6]","[[2, 6, 3, 4, 4], [5, 7, 3, 4, 6], [6, 7, 8, 4, 10]]","[[3, 3, 3, 3, 3], [0, 0, 0, 0, 3], [3, 3, 3, 3, 3]]","[2, 18, 10]",16,9,1,0.069,0.065,0.004,"[5, 7, 8, 6]",4,5,3,8787,12,208,196,medium,True,2,traffic-light-mouselab,13,257466,7,0,0,10,0,7
traffic-light-mouselab,False,3,1,"[11, 11, 11, 13, 13, 13, 12, 12, 12, 2]","[[5, 4, 4, 3, 2], [1, 4, 4, 4, 6], [6, 5, 6, 3, 8]]","[[1, 1, 0, 1, 1], [3, 3, 3, 3, 3], [3, 0, 0, 0, 3]]","[2, 10, 18]",16,10,2,0.052,0.048666666666666664,0.0033333333333333335,"[11, 13, 12, 2]",4,5,3,8817,10,156,146,low,False,0,traffic-light-mouselab,14,268926,4,0,1,2,1,7
traffic-light-mouselab,False,3,1,"[6, 6, 6, 8, 8, 8, 13]","[[3, 3, 4, 4, 4], [5, 5, 4, 7, 7], [3, 4, 10, 6, 1]]","[[3, 3, 3, 3, 3], [3, 0, 3, 0, 3], [1, 1, 1, 0, 1]]","[2, 18, 10]",16,11,3,0.065,0.06266666666666666,0.0023333333333333335,"[6, 8, 13]",3,5,3,7470,7,194,187,medium,False,2,traffic-light-mouselab,15,278298,6,0,1,10,1,7
traffic-light-mouselab,False,3,1,"[6, 6, 6, 9, 9, 9, 7, 7, 7, 5, 5, 5]","[[2, 4, 4, 7, 5], [5, 6, 2, 5, 3], [5, 3, 6, 5, 6]]","[[3, 3, 3, 3, 3], [0, 0, 0, 3, 0], [3, 3, 3, 3, 3]]","[2, 18, 10]",16,12,1,0.049,0.045,0.004,"[6, 9, 7, 5]",4,5,3,15341,12,146,134,medium,True,2,traffic-light-mouselab,16,295379,3,0,0,10,0,7
traffic-light-mouselab,False,3,1,"[7, 7, 7, 5, 5, 5, 9, 9, 9]","[[7, 3, 6, 6, 4], [3, 2, 4, 3, 6], [6, 6, 7, 6, 2]]","[[3, 3, 3, 3, 3], [0, 3, 0, 3, 0], [3, 3, 3, 3, 3]]","[10, 18, 2]",16,13,4,0.051,0.047999999999999994,0.003,"[7, 5, 9]",3,5,3,7227,9,152,143,medium,True,0,traffic-light-mouselab,17,303880,4,0,0,10,0,7
traffic-light-mouselab,False,3,1,"[6, 8, 9, 7]","[[7, 7, 6, 5, 5], [6, 7, 6, 6, 9], [5, 6, 3, 6, 5]]","[[3, 3, 3, 3, 3], [1, 0, 0, 0, 0], [3, 3, 3, 3, 3]]","[2, 18, 10]",16,14,4,0.074,0.07266666666666666,0.0013333333333333333,"[6, 8, 9, 7]",4,5,3,8577,4,222,218,hi,False,1,traffic-light-mouselab,18,314187,9,1,4,18,4,7
traffic-light-mouselab,False,3,1,"[1, 1, 1, 3, 3, 3, 4, 4, 4]","[[5, 5, 5, 4, 7], [2, 5, 3, 4, 1], [3, 6, 4, 3, 6]]","[[3, 0, 3, 0, 0], [3, 3, 3, 3, 3], [3, 3, 3, 3, 3]]","[18, 2, 10]",16,15,4,0.063,0.06,0.003,"[1, 3, 4]",3,5,3,7869,9,188,179,low,True,1,traffic-light-mouselab,19,323614,1,0,0,2,0,7
traffic-light-mouselab,False,3,1,"[11, 11, 11, 13, 13, 13, 10, 10, 10, 3]","[[7, 6, 2, 8, 6], [4, 5, 6, 7, 7], [4, 3, 6, 6, 4]]","[[1, 1, 1, 0, 1], [3, 3, 3, 3, 3], [0, 0, 3, 0, 3]]","[10, 2, 18]",16,16,3,0.067,0.06366666666666668,0.0033333333333333335,"[11, 13, 10, 3]",4,5,3,9297,10,202,192,medium,False,0,traffic-light-mouselab,20,334518,8,1,1,10,1,7
traffic-light-mouselab,False,3,1,"[7, 7, 7, 6, 6, 6, 9, 9, 9, 8, 8, 8, 13]","[[7, 8, 4, 5, 5], [6, 5, 3, 8, 5], [2, 4, 1, 5, 6]]","[[3, 3, 3, 3, 3], [3, 0, 0, 0, 0], [1, 1, 1, 0, 1]]","[2, 18, 10]",16,17,3,0.068,0.06366666666666668,0.004333333333333333,"[7, 6, 9, 8, 13]",5,5,3,13463,13,204,191,medium,False,2,traffic-light-mouselab,21,349378,5,0,1,10,1,7
traffic-light-mouselab,False,3,1,"[6, 6, 6, 9, 9, 9, 8, 8, 8, 7, 7, 7, 11, 1]","[[6, 4, 4, 4, 6], [5, 6, 5, 4, 4], [7, 8, 4, 3, 6]]","[[3, 2, 3, 3, 3], [3, 0, 0, 0, 0], [1, 0, 1, 1, 1]]","[10, 18, 2]",16,18,1,0.055,0.050333333333333334,0.004666666666666667,"[6, 9, 8, 7, 11]",5,5,3,12064,14,164,150,low,False,2,traffic-light-mouselab,22,363198,8,1,1,2,1,7
traffic-light-mouselab,False,3,1,"[0, 0, 0, 5]","[[7, 6, 5, 4, 3], [3, 4, 4, 3, 6], [5, 4, 7, 4, 5]]","[[0, 3, 3, 3, 3], [0, 1, 1, 1, 1], [3, 3, 3, 3, 3]]","[18, 2, 10]",16,19,0,0.061,0.059666666666666666,0.0013333333333333333,"[0, 5]",2,5,3,8416,4,182,178,low,False,1,traffic-light-mouselab,23,372928,3,0,1,2,1,7
traffic-light-mouselab,False,3,1,"[12, 12, 12, 14, 14, 14, 10, 10, 10, 11, 11, 11]","[[3, 5, 4, 2, 5], [6, 2, 7, 5, 5], [4, 9, 3, 3, 3]]","[[3, 3, 3, 3, 3], [3, 3, 3, 3, 3], [0, 0, 0, 3, 0]]","[2, 10, 18]",16,20,1,0.064,0.06,0.004,"[12, 14, 10, 11]",4,5,3,7919,12,192,180,hi,True,2,traffic-light-mouselab,24,382137,9,1,12,18,4,7
traffic-light-mouselab,False,3,1,"[7, 8, 9, 6, 5]","[[5, 7, 8, 6, 9], [3, 4, 4, 7, 6], [6, 6, 6, 4, 3]]","[[3, 3, 3, 3, 3], [0, 0, 0, 0, 0], [3, 3, 3, 3, 3]]","[10, 18, 2]",16,21,3,0.065,0.06333333333333334,0.0016666666666666668,"[7, 8, 9, 6, 5]",5,5,3,7584,5,194,189,hi,False,1,traffic-light-mouselab,25,391458,7,1,5,18,5,7
traffic-light-mouselab,False,3,1,"[6, 6, 6, 9, 9, 9, 8, 8, 8]","[[3, 8, 4, 3, 4], [8, 3, 3, 6, 4], [2, 6, 8, 5, 3]]","[[3, 3, 3, 3, 3], [3, 0, 3, 0, 0], [3, 3, 3, 3, 3]]","[2, 18, 10]",16,22,3,0.055,0.052,0.003,"[6, 9, 8]",3,5,3,10389,9,164,155,medium,True,2,traffic-light-mouselab,26,403496,5,0,0,10,0,7
traffic-light-mouselab,False,3,1,"[10, 11, 12, 13, 14, 5, 5, 5, 6, 6, 6]","[[5, 4, 3, 3, 6], [3, 6, 5, 5, 7], [6, 6, 2, 4, 3]]","[[3, 3, 3, 3, 3], [0, 0, 3, 3, 3], [0, 0, 0, 0, 0]]","[2, 10, 18]",16,23,1,0.059,0.05533333333333333,0.0036666666666666666,"[10, 11, 12, 13, 14, 5, 6]",7,5,3,8375,11,176,165,hi,False,2,traffic-light-mouselab,27,413412,6,1,5,18,5,7
traffic-light-mouselab,False,3,1,"[5, 5, 5, 7, 7, 7, 9, 9, 9]","[[4, 5, 3, 7, 6], [4, 5, 4, 2, 7], [6, 5, 4, 7, 4]]","[[3, 3, 3, 3, 3], [0, 3, 0, 3, 0], [3, 3, 3, 3, 3]]","[10, 18, 2]",16,24,4,0.065,0.062,0.003,"[5, 7, 9]",3,5,3,5816,9,194,185,low,True,2,traffic-light-mouselab,28,420336,4,0,0,2,0,7
traffic-light-mouselab,False,3,1,"[10, 11, 12, 13, 14]","[[5, 3, 5, 2, 6], [7, 7, 5, 5, 8], [8, 3, 3, 4, 5]]","[[3, 3, 3, 3, 3], [3, 3, 3, 3, 3], [0, 0, 0, 0, 0]]","[10, 2, 18]",16,25,0,0.069,0.06733333333333334,0.0016666666666666668,"[10, 11, 12, 13, 14]",5,5,3,6988,5,208,203,hi,False,2,traffic-light-mouselab,29,428981,8,1,5,18,5,7
traffic-light-mouselab,False,3,1,"[6, 6, 6, 8, 8, 8, 9, 9, 9, 7, 7, 7]","[[6, 5, 3, 2, 7], [4, 2, 4, 4, 5], [4, 4, 4, 6, 4]]","[[3, 3, 3, 3, 3], [3, 0, 0, 0, 0], [3, 3, 3, 3, 3]]","[10, 18, 2]",16,26,4,0.056,0.052000000000000005,0.004,"[6, 8, 9, 7]",4,5,3,9675,12,168,156,hi,True,1,traffic-light-mouselab,30,440443,5,1,12,18,4,7
traffic-light-mouselab,False,3,1,"[5, 5, 5, 7, 7, 7, 7, 12, 12]","[[5, 7, 5, 4, 7], [4, 7, 6, 3, 2], [3, 3, 8, 4, 3]]","[[3, 3, 3, 3, 3], [0, 3, 0, 3, 3], [1, 1, 0, 1, 1]]","[2, 18, 10]",16,27,2,0.066,0.06366666666666666,0.0023333333333333335,"[5, 7, 12]",3,5,3,6340,7,198,191,medium,False,2,traffic-light-mouselab,31,447862,8,1,2,10,1,7
traffic-light-mouselab,False,3,1,"[6, 6, 6, 8, 8, 8]","[[4, 7, 6, 6, 3], [6, 6, 4, 4, 3], [5, 3, 7, 5, 6]]","[[3, 3, 3, 3, 3], [3, 0, 3, 0, 3], [3, 3, 3, 3, 3]]","[10, 18, 2]",16,28,1,0.061,0.059,0.002,"[6, 8]",2,5,3,8355,6,184,178,hi,True,1,traffic-light-mouselab,32,457338,6,1,6,18,2,7
traffic-light-mouselab,False,3,1,"[10, 11, 12, 13, 14, 5, 5, 5, 9, 9, 9]","[[4, 6, 7, 5, 7], [5, 6, 5, 4, 7], [6, 5, 5, 4, 6]]","[[3, 3, 3, 3, 3], [0, 3, 3, 3, 0], [0, 0, 0, 0, 0]]","[2, 10, 18]",16,29,4,0.064,0.060333333333333336,0.0036666666666666666,"[10, 11, 12, 13, 14, 5, 9]",7,5,3,9058,11,192,181,hi,False,2,traffic-light-mouselab,33,467645,6,1,5,18,5,7
traffic-light-mouselab,False,3,1,"[10, 10, 10, 12, 12, 12, 11, 11, 11]","[[3, 4, 4, 8, 7], [4, 4, 7, 8, 9], [6, 5, 6, 3, 6]]","[[3, 3, 3, 3, 3], [3, 3, 3, 3, 3], [0, 0, 0, 3, 3]]","[2, 10, 18]",16,30,2,0.062,0.059,0.003,"[10, 12, 11]",3,5,3,10317,9,186,177,low,True,0,traffic-light-mouselab,34,479341,4,0,0,2,0,7
traffic-light-mouselab,False,3,1,"[0, 0, 0, 2, 2, 2]","[[6, 4, 5, 4, 9], [4, 5, 3, 6, 6], [5, 1, 7, 7, 7]]","[[0, 3, 0, 3, 3], [1, 1, 1, 1, 1], [3, 3, 3, 3, 3]]","[18, 2, 10]",16,31,0,0.055,0.053,0.002,"[0, 2]",2,5,3,11143,6,166,160,low,False,1,traffic-light-mouselab,35,491817,4,0,0,2,0,7
traffic-light-mouselab,False,3,1,"[6, 6, 6, 8, 8, 8]","[[5, 3, 4, 4, 5], [5, 4, 9, 6, 5], [7, 5, 8, 7, 4]]","[[3, 3, 3, 3, 3], [3, 0, 3, 0, 3], [3, 3, 3, 3, 3]]","[10, 18, 2]",16,32,3,0.054,0.052,0.002,"[6, 8]",2,5,3,6539,6,162,156,hi,True,1,traffic-light-mouselab,36,500470,6,0,6,18,2,7
traffic-light-mouselab,True,3,1,"[10, 10, 11, 12, 13, 14]","[[4, 4, 3, 4, 0], [5, 4, 5, 8, 5], [2, 4, 4, 7, 4]]","[[3, 3, 3, 3, 3], [3, 3, 3, 3, 3], [0, 0, 0, 0, 0]]","[2, 10, 18]",16,1,3,0.071,0.06933333333333333,0.0016666666666666668,"[10, 11, 12, 13, 14]",5,5,3,14966,5,214,209,hi,False,2,traffic-light-mouselab,4,138679,7,1,6,18,5,8
traffic-light-mouselab,True,3,1,"[0, 1, 2, 3, 4, 0, 0, 1, 1, 2, 2, 3, 3, 4, 4]","[[6, 9, 5, 4, 9], [3, 4, 7, 6, 5], [3, 4, 6, 5, 2]]","[[0, 0, 0, 0, 0], [3, 3, 3, 3, 3], [3, 3, 3, 3, 3]]","[18, 10, 2]",16,2,1,0.07,0.065,0.005,"[0, 1, 2, 3, 4]",5,5,3,20161,15,210,195,hi,True,0,traffic-light-mouselab,5,163113,9,1,15,18,5,8
traffic-light-mouselab,False,3,1,"[10, 11, 12, 13, 14, 7, 7, 7, 6, 6, 6]","[[4, 5, 5, 7, 7], [2, 5, 6, 6, 4], [6, 7, 7, 3, 6]]","[[3, 3, 3, 3, 3], [3, 0, 0, 3, 3], [0, 0, 0, 0, 0]]","[2, 18, 10]",16,3,2,0.063,0.059333333333333335,0.0036666666666666666,"[10, 11, 12, 13, 14, 7, 6]",7,5,3,15540,11,188,177,medium,False,2,traffic-light-mouselab,7,185514,7,1,5,10,5,8
traffic-light-mouselab,False,3,1,"[0, 0, 0, 1, 1, 1, 2, 2, 2, 3, 3, 3, 4, 4, 4]","[[5, 5, 5, 8, 6], [7, 4, 5, 6, 6], [3, 7, 5, 3, 5]]","[[0, 0, 0, 0, 0], [3, 3, 3, 3, 3], [3, 3, 3, 3, 3]]","[18, 2, 10]",16,4,3,0.062,0.057,0.005,"[0, 1, 2, 3, 4]",5,5,3,7330,15,186,171,hi,True,0,traffic-light-mouselab,8,194287,8,1,15,18,5,8
traffic-light-mouselab,False,3,1,"[10, 10, 10, 11, 11, 11]","[[4, 5, 5, 4, 3], [5, 6, 5, 4, 3], [2, 9, 4, 6, 5]]","[[3, 3, 3, 3, 3], [3, 3, 3, 3, 3], [0, 0, 3, 3, 3]]","[2, 10, 18]",16,5,1,0.077,0.075,0.002,"[10, 11]",2,5,3,6728,6,232,226,hi,True,2,traffic-light-mouselab,9,202770,9,1,6,18,2,8
traffic-light-mouselab,False,3,1,"[5, 6, 7, 8, 9, 10]","[[5, 2, 5, 8, 5], [3, 6, 7, 5, 7], [6, 3, 3, 4, 4]]","[[3, 3, 3, 3, 3], [0, 0, 0, 0, 0], [2, 3, 3, 3, 3]]","[10, 2, 18]",16,6,0,0.055,0.053,0.002,"[5, 6, 7, 8, 9]",5,5,3,7690,6,164,158,low,False,1,traffic-light-mouselab,10,211991,3,0,5,2,5,8
traffic-light-mouselab,False,3,1,"[0, 0, 0, 1, 1, 1, 2, 2, 2, 3, 3, 3, 4, 4, 4]","[[4, 1, 4, 4, 4], [6, 7, 4, 6, 5], [4, 5, 6, 5, 4]]","[[0, 0, 0, 0, 0], [3, 3, 3, 3, 3], [3, 3, 3, 3, 3]]","[18, 10, 2]",16,7,4,0.043,0.038,0.005,"[0, 1, 2, 3, 4]",5,5,3,13705,15,130,115,medium,True,1,traffic-light-mouselab,11,227035,5,0,0,10,0,8
traffic-light-mouselab,False,3,1,"[10, 10, 10, 12, 12, 12, 13, 13, 13]","[[3, 3, 5, 5, 6], [6, 5, 7, 9, 4], [5, 6, 3, 4, 3]]","[[3, 3, 3, 3, 3], [3, 3, 3, 3, 3], [0, 3, 0, 0, 3]]","[10, 2, 18]",16,8,0,0.044,0.040999999999999995,0.003,"[10, 12, 13]",3,5,3,5750,9,132,123,low,True,1,traffic-light-mouselab,12,233811,6,0,0,2,0,8
traffic-light-mouselab,False,3,1,[10],"[[6, 4, 6, 4, 4], [3, 7, 5, 6, 5], [7, 1, 2, 6, 4]]","[[3, 3, 3, 3, 3], [3, 3, 3, 3, 3], [0, 1, 1, 1, 1]]","[2, 10, 18]",16,9,0,0.056,0.05566666666666667,0.0003333333333333333,[10],1,5,3,2731,1,168,167,hi,False,2,traffic-light-mouselab,13,239574,7,1,1,18,1,8
traffic-light-mouselab,False,3,1,"[5, 6, 7, 8, 9]","[[4, 6, 8, 5, 4], [5, 4, 4, 4, 6], [5, 4, 3, 7, 4]]","[[3, 3, 3, 3, 3], [0, 0, 0, 0, 0], [3, 3, 3, 3, 3]]","[2, 18, 10]",16,10,4,0.052,0.050333333333333334,0.0016666666666666668,"[5, 6, 7, 8, 9]",5,5,3,3996,5,156,151,hi,False,1,traffic-light-mouselab,14,245420,6,1,5,18,5,8
traffic-light-mouselab,False,3,1,"[0, 0, 0]","[[8, 5, 2, 6, 0], [6, 5, 7, 3, 7], [2, 10, 4, 5, 4]]","[[0, 3, 3, 3, 3], [3, 3, 3, 3, 3], [3, 3, 3, 3, 3]]","[18, 10, 2]",16,11,0,0.069,0.068,0.001,[0],1,5,3,4814,3,208,205,hi,True,0,traffic-light-mouselab,15,252607,8,1,3,18,1,8
traffic-light-mouselab,False,3,1,"[0, 1, 2, 3, 4]","[[7, 6, 6, 2, 6], [5, 6, 5, 5, 4], [6, 4, 4, 4, 6]]","[[0, 0, 0, 0, 0], [3, 3, 3, 3, 3], [3, 3, 3, 3, 3]]","[2, 18, 10]",16,12,3,0.045,0.043333333333333335,0.0016666666666666668,"[0, 1, 2, 3, 4]",5,5,3,5807,5,134,129,low,False,0,traffic-light-mouselab,16,259768,2,0,5,2,5,8
traffic-light-mouselab,False,3,1,"[5, 5, 5, 6, 6, 6, 7, 7, 7, 9, 9, 9, 8, 8, 8]","[[8, 4, 5, 4, 6], [1, 2, 4, 2, 4], [5, 7, 3, 3, 3]]","[[3, 3, 3, 3, 3], [0, 0, 0, 0, 0], [3, 3, 3, 3, 3]]","[10, 18, 2]",16,13,2,0.043,0.038,0.005,"[5, 6, 7, 9, 8]",5,5,3,6769,15,128,113,medium,True,0,traffic-light-mouselab,17,267811,5,0,0,10,0,8
traffic-light-mouselab,False,3,1,"[0, 1, 2, 3, 4]","[[4, 3, 5, 7, 3], [8, 8, 6, 2, 3], [6, 3, 6, 4, 3]]","[[0, 0, 0, 0, 0], [3, 3, 3, 3, 3], [3, 3, 3, 3, 3]]","[18, 2, 10]",16,14,3,0.057,0.05533333333333334,0.0016666666666666668,"[0, 1, 2, 3, 4]",5,5,3,3524,5,170,165,hi,False,0,traffic-light-mouselab,18,272345,7,1,5,18,5,8
traffic-light-mouselab,False,3,1,"[7, 7, 7, 7, 9, 9, 9, 5, 5, 5, 6, 6, 6, 8, 8, 8]","[[3, 3, 5, 4, 8], [2, 4, 4, 5, 4], [3, 9, 6, 5, 2]]","[[3, 3, 3, 3, 3], [0, 0, 0, 0, 0], [3, 3, 3, 3, 3]]","[10, 18, 2]",16,15,3,0.047,0.042,0.005,"[7, 9, 5, 6, 8]",5,5,3,9422,15,140,125,low,True,2,traffic-light-mouselab,19,283498,5,0,0,2,0,8
traffic-light-mouselab,False,3,1,"[0, 1, 2, 4, 3]","[[4, 3, 6, 3, 7], [5, 6, 3, 7, 7], [3, 2, 4, 4, 2]]","[[0, 0, 0, 0, 0], [3, 3, 3, 3, 3], [3, 3, 3, 3, 3]]","[18, 10, 2]",16,16,4,0.067,0.06533333333333334,0.0016666666666666668,"[0, 1, 2, 4, 3]",5,5,3,4363,5,200,195,hi,False,0,traffic-light-mouselab,20,289145,7,1,5,18,5,8
traffic-light-mouselab,False,3,1,"[10, 10, 10]","[[7, 6, 6, 7, 6], [5, 7, 7, 6, 6], [8, 2, 6, 3, 5]]","[[1, 1, 1, 1, 1], [3, 3, 3, 3, 3], [0, 3, 3, 3, 3]]","[10, 2, 18]",16,17,0,0.075,0.074,0.001,[10],1,5,3,5914,3,224,221,medium,False,0,traffic-light-mouselab,21,296067,7,1,0,10,0,8
traffic-light-mouselab,False,3,1,"[6, 6, 6, 8, 8, 8, 9, 9, 9]","[[5, 6, 5, 3, 10], [3, 5, 6, 3, 7], [9, 6, 4, 7, 3]]","[[3, 3, 3, 3, 3], [3, 0, 3, 0, 0], [3, 3, 3, 3, 3]]","[2, 18, 10]",16,18,4,0.059,0.055999999999999994,0.003,"[6, 8, 9]",3,5,3,5832,9,176,167,hi,True,1,traffic-light-mouselab,22,303742,7,1,9,18,3,8
traffic-light-mouselab,False,3,1,"[7, 7, 7, 9, 9, 9, 8, 8, 8, 6, 6, 6]","[[2, 5, 5, 6, 3], [4, 7, 6, 6, 6], [5, 3, 4, 2, 7]]","[[3, 3, 3, 3, 3], [3, 0, 0, 0, 0], [1, 1, 1, 1, 1]]","[2, 18, 10]",16,19,1,0.055,0.051000000000000004,0.004,"[7, 9, 8, 6]",4,5,3,9275,12,166,154,medium,False,2,traffic-light-mouselab,23,315437,3,0,0,10,0,8
traffic-light-mouselab,False,3,1,"[0, 0, 0, 10, 11, 12, 13, 14, 2]","[[5, 6, 6, 3, 7], [5, 3, 3, 6, 5], [7, 5, 7, 5, 5]]","[[0, 3, 2, 3, 3], [3, 3, 3, 3, 3], [0, 0, 0, 0, 0]]","[18, 10, 2]",16,20,2,0.051,0.047999999999999994,0.003,"[0, 10, 11, 12, 13, 14]",6,5,3,9285,9,152,143,low,False,2,traffic-light-mouselab,24,325666,7,1,5,2,5,8
traffic-light-mouselab,False,3,1,"[0, 0, 0]","[[8, 8, 5, 3, 5], [5, 7, 8, 6, 4], [5, 5, 7, 5, 3]]","[[0, 3, 3, 3, 3], [3, 3, 3, 3, 3], [3, 3, 3, 3, 3]]","[18, 10, 2]",16,21,0,0.068,0.067,0.001,[0],1,5,3,3894,3,204,201,low,True,2,traffic-light-mouselab,25,330312,5,0,0,2,0,8
traffic-light-mouselab,False,3,1,"[10, 11, 12, 13, 14]","[[2, 2, 5, 5, 6], [3, 4, 4, 2, 3], [6, 2, 4, 5, 4]]","[[3, 3, 3, 3, 3], [3, 3, 3, 3, 3], [0, 0, 0, 0, 0]]","[10, 18, 2]",16,22,1,0.032,0.030333333333333334,0.0016666666666666668,"[10, 11, 12, 13, 14]",5,5,3,4991,5,96,91,low,False,2,traffic-light-mouselab,26,336105,2,0,5,2,5,8
traffic-light-mouselab,False,3,1,"[4, 4, 4, 4, 4]","[[4, 4, 4, 6, 7], [3, 5, 4, 6, 6], [6, 5, 7, 3, 5]]","[[3, 3, 3, 3, 0], [3, 3, 3, 3, 3], [3, 3, 3, 3, 3]]","[18, 2, 10]",16,23,4,0.063,0.062,0.001,[4],1,5,3,7819,3,188,185,medium,True,2,traffic-light-mouselab,27,344822,5,0,0,10,0,8
traffic-light-mouselab,False,3,1,"[7, 7, 7, 9, 9, 9, 8, 8, 8, 6, 6, 6, 5, 5, 5]","[[4, 6, 2, 4, 6], [7, 6, 5, 3, 4], [6, 6, 6, 6, 5]]","[[3, 3, 3, 3, 3], [0, 0, 0, 0, 0], [1, 1, 1, 1, 1]]","[2, 18, 10]",16,24,0,0.065,0.060000000000000005,0.005,"[7, 9, 8, 6, 5]",5,5,3,7672,15,194,179,medium,False,2,traffic-light-mouselab,28,353280,6,1,0,10,0,8
traffic-light-mouselab,False,3,1,"[2, 2, 2]","[[6, 6, 7, 5, 8], [2, 3, 5, 5, 4], [7, 5, 5, 5, 4]]","[[3, 3, 0, 3, 3], [3, 3, 3, 3, 3], [3, 3, 3, 3, 3]]","[18, 10, 2]",16,25,2,0.062,0.061,0.001,[2],1,5,3,3316,3,186,183,low,True,2,traffic-light-mouselab,29,357623,5,0,0,2,0,8
traffic-light-mouselab,False,3,1,"[9, 9, 9, 7, 7, 7]","[[7, 6, 8, 3, 8], [6, 6, 7, 2, 4], [4, 6, 6, 7, 7]]","[[3, 3, 3, 3, 3], [3, 3, 0, 3, 0], [3, 3, 3, 3, 3]]","[10, 18, 2]",16,26,2,0.073,0.071,0.002,"[9, 7]",2,5,3,4933,6,218,212,hi,True,1,traffic-light-mouselab,30,363758,7,1,6,18,2,8
traffic-light-mouselab,False,3,1,"[6, 6, 6, 7, 7, 7, 8, 8, 8, 9, 9, 9, 5, 5, 5]","[[7, 7, 4, 6, 5], [3, 6, 5, 3, 4], [6, 5, 7, 6, 7]]","[[3, 3, 3, 3, 3], [0, 0, 0, 0, 0], [3, 3, 3, 3, 3]]","[10, 18, 2]",16,27,1,0.063,0.058,0.005,"[6, 7, 8, 9, 5]",5,5,3,6216,15,188,173,low,True,2,traffic-light-mouselab,31,370920,5,0,0,2,0,8
traffic-light-mouselab,False,3,1,"[2, 2, 2, 4, 4, 4, 1, 1, 1, 0, 0, 0, 3, 3, 3]","[[3, 6, 5, 6, 1], [6, 3, 6, 4, 3], [6, 5, 5, 3, 5]]","[[0, 0, 0, 0, 0], [3, 3, 3, 3, 3], [3, 3, 3, 3, 3]]","[18, 10, 2]",16,28,1,0.049,0.044000000000000004,0.005,"[2, 4, 1, 0, 3]",5,5,3,6968,15,148,133,medium,True,1,traffic-light-mouselab,32,379381,3,0,0,10,0,8
traffic-light-mouselab,False,3,1,"[0, 1, 2, 3, 4, 11, 11, 11]","[[3, 6, 4, 2, 6], [8, 5, 6, 4, 9], [5, 7, 4, 6, 4]]","[[0, 0, 0, 0, 0], [3, 3, 3, 3, 3], [3, 0, 3, 3, 3]]","[18, 2, 10]",16,29,1,0.063,0.060333333333333336,0.0026666666666666666,"[0, 1, 2, 3, 4, 11]",6,5,3,6149,8,188,180,hi,False,0,traffic-light-mouselab,33,388344,6,1,5,18,5,8
traffic-light-mouselab,False,3,1,"[12, 12, 12]","[[4, 4, 8, 6, 5], [4, 3, 7, 5, 6], [3, 2, 6, 4, 9]]","[[3, 3, 3, 3, 3], [3, 3, 3, 3, 3], [3, 3, 0, 3, 3]]","[2, 10, 18]",16,30,2,0.065,0.064,0.001,[12],1,5,3,3507,3,194,191,medium,True,1,traffic-light-mouselab,34,392700,7,1,0,10,0,8
traffic-light-mouselab,False,3,1,"[0, 1, 2, 3, 4]","[[7, 4, 2, 5, 6], [5, 3, 6, 4, 7], [2, 4, 6, 7, 2]]","[[0, 0, 0, 0, 0], [3, 3, 3, 3, 3], [3, 3, 3, 3, 3]]","[2, 18, 10]",16,31,2,0.057,0.05533333333333334,0.0016666666666666668,"[0, 1, 2, 3, 4]",5,5,3,4598,5,172,167,low,False,0,traffic-light-mouselab,35,398117,2,0,5,2,5,8
traffic-light-mouselab,False,3,1,"[0, 0, 0]","[[8, 2, 7, 4, 5], [6, 3, 4, 7, 2], [5, 6, 6, 5, 5]]","[[0, 3, 3, 3, 3], [1, 1, 1, 1, 1], [3, 3, 3, 3, 3]]","[18, 10, 2]",16,32,0,0.071,0.06999999999999999,0.001,[0],1,5,3,6018,3,214,211,medium,False,1,traffic-light-mouselab,36,406028,6,0,0,10,0,8
traffic-light-mouselab,True,3,1,"[0, 5, 10]","[[5, 4, 4, 7, 3], [3, 5, 4, 4, 4], [5, 3, 4, 2, 5]]","[[2, 3, 3, 3, 3], [2, 3, 3, 3, 3], [0, 1, 1, 1, 1]]","[18, 2, 10]",16,1,0,0.049,0.048,0.001,[10],1,5,3,12800,3,146,143,medium,False,2,traffic-light-mouselab,4,239776,5,1,1,10,1,9
traffic-light-mouselab,True,3,1,[],"[[4, 5, 5, 6, 6], [8, 5, 7, 6, 5], [6, 4, 6, 4, 5]]","[[3, 3, 3, 3, 3], [3, 3, 3, 3, 3], [3, 3, 3, 3, 3]]","[18, 10, 2]",16,2,2,0.057,0.057,0.0,[],0,5,3,3544,0,172,172,medium,True,1,traffic-light-mouselab,5,247798,7,0,0,10,0,9
traffic-light-mouselab,False,3,1,[],"[[5, 4, 2, 4, 5], [4, 4, 6, 5, 4], [2, 5, 8, 0, 8]]","[[3, 3, 3, 3, 3], [3, 3, 3, 3, 3], [1, 1, 1, 1, 1]]","[10, 2, 18]",16,3,4,0.067,0.067,0.0,[],0,5,3,2550,0,202,202,hi,False,2,traffic-light-mouselab,7,260043,8,1,0,18,0,9
traffic-light-mouselab,False,3,1,[],"[[8, 5, 7, 5, 3], [8, 5, 4, 7, 6], [7, 7, 2, 6, 1]]","[[3, 3, 3, 3, 3], [3, 3, 3, 3, 3], [1, 1, 1, 1, 1]]","[10, 18, 2]",16,4,2,0.049,0.049,0.0,[],0,5,3,2387,0,146,146,low,False,2,traffic-light-mouselab,8,265028,2,0,0,2,0,9
traffic-light-mouselab,False,3,1,[],"[[5, 6, 6, 7, 8], [6, 4, 6, 5, 8], [4, 4, 4, 5, 5]]","[[3, 3, 3, 3, 3], [3, 3, 3, 3, 3], [3, 3, 3, 3, 3]]","[18, 2, 10]",16,5,0,0.047,0.047,0.0,[],0,5,3,1994,0,142,142,medium,True,2,traffic-light-mouselab,9,269844,4,0,0,10,0,9
traffic-light-mouselab,False,3,1,[],"[[3, 7, 6, 8, 2], [7, 8, 1, 1, 7], [3, 3, 8, 7, 4]]","[[1, 1, 1, 1, 1], [3, 3, 3, 3, 3], [3, 3, 3, 3, 3]]","[10, 2, 18]",16,6,3,0.069,0.069,0.0,[],0,5,3,1861,0,208,208,medium,False,0,traffic-light-mouselab,10,275275,8,1,0,10,0,9
traffic-light-mouselab,False,3,1,[],"[[2, 4, 5, 6, 1], [4, 5, 5, 5, 8], [5, 6, 7, 2, 5]]","[[3, 3, 3, 3, 3], [3, 3, 3, 3, 3], [3, 3, 3, 3, 3]]","[18, 2, 10]",16,7,4,0.028,0.028,0.0,[],0,5,3,1600,0,84,84,medium,True,2,traffic-light-mouselab,11,280836,5,0,0,10,0,9
traffic-light-mouselab,False,3,1,[],"[[5, 4, 7, 5, 7], [6, 4, 6, 5, 6], [7, 4, 3, 4, 5]]","[[3, 3, 3, 3, 3], [3, 3, 3, 3, 3], [3, 3, 3, 3, 3]]","[2, 18, 10]",16,8,1,0.04,0.04,0.0,[],0,5,3,1463,0,120,120,hi,True,1,traffic-light-mouselab,12,284349,4,0,0,18,0,9
traffic-light-mouselab,False,3,1,[],"[[8, 6, 2, 6, 6], [7, 6, 3, 10, 6], [5, 4, 6, 6, 2]]","[[1, 1, 1, 1, 1], [3, 3, 3, 3, 3], [3, 3, 3, 3, 3]]","[18, 10, 2]",16,9,0,0.075,0.075,0.0,[],0,5,3,1819,0,224,224,hi,False,0,traffic-light-mouselab,13,288572,8,1,0,18,0,9
traffic-light-mouselab,False,3,1,[],"[[2, 7, 4, 4, 6], [6, 5, 5, 1, 6], [4, 4, 3, 7, 3]]","[[3, 3, 3, 3, 3], [3, 3, 3, 3, 3], [3, 3, 3, 3, 3]]","[2, 10, 18]",16,10,0,0.045,0.045,0.0,[],0,5,3,2974,0,136,136,low,True,0,traffic-light-mouselab,14,293946,2,0,0,2,0,9
traffic-light-mouselab,False,3,1,[],"[[8, 7, 7, 3, 5], [4, 3, 3, 5, 2], [5, 5, 5, 4, 2]]","[[3, 3, 3, 3, 3], [3, 3, 3, 3, 3], [3, 3, 3, 3, 3]]","[10, 2, 18]",16,11,1,0.055,0.055,0.0,[],0,5,3,2034,0,166,166,low,True,1,traffic-light-mouselab,15,298519,3,0,0,2,0,9
traffic-light-mouselab,False,3,1,[],"[[4, 5, 7, 5, 6], [5, 6, 5, 3, 4], [3, 5, 5, 5, 7]]","[[3, 3, 3, 3, 3], [3, 3, 3, 3, 3], [3, 3, 3, 3, 3]]","[2, 18, 10]",16,12,2,0.051,0.051,0.0,[],0,5,3,2609,0,154,154,hi,True,1,traffic-light-mouselab,16,304099,5,0,0,18,0,9
traffic-light-mouselab,False,3,1,[],"[[4, 6, 4, 5, 6], [6, 8, 8, 6, 4], [5, 5, 6, 4, 5]]","[[1, 1, 1, 1, 1], [3, 3, 3, 3, 3], [3, 3, 3, 3, 3]]","[10, 18, 2]",16,13,0,0.053,0.053,0.0,[],0,5,3,1721,0,158,158,medium,False,0,traffic-light-mouselab,17,308100,4,0,0,10,0,9
traffic-light-mouselab,False,3,1,[],"[[3, 4, 6, 5, 3], [5, 6, 8, 6, 4], [5, 6, 6, 2, 5]]","[[3, 3, 3, 3, 3], [3, 3, 3, 3, 3], [3, 3, 3, 3, 3]]","[2, 18, 10]",16,14,3,0.046,0.046,0.0,[],0,5,3,2215,0,138,138,hi,True,1,traffic-light-mouselab,18,312626,6,0,0,18,0,9
traffic-light-mouselab,False,3,1,[],"[[4, 3, 6, 5, 5], [4, 4, 4, 6, 5], [5, 2, 5, 6, 7]]","[[3, 3, 3, 3, 3], [3, 3, 3, 3, 3], [1, 1, 1, 1, 1]]","[2, 18, 10]",16,15,2,0.045,0.045,0.0,[],0,5,3,1732,0,134,134,medium,False,2,traffic-light-mouselab,19,317256,5,0,0,10,0,9
traffic-light-mouselab,False,3,1,[],"[[5, 6, 3, 2, 6], [9, 9, 7, 5, 4], [4, 3, 4, 7, 3]]","[[3, 3, 3, 3, 3], [3, 3, 3, 3, 3], [1, 1, 1, 1, 1]]","[10, 2, 18]",16,16,0,0.047,0.047,0.0,[],0,5,3,1913,0,140,140,hi,False,2,traffic-light-mouselab,20,321798,4,0,0,18,0,9
traffic-light-mouselab,False,3,1,[],"[[3, 5, 6, 9, 4], [7, 8, 5, 6, 4], [2, 6, 2, 5, 8]]","[[3, 3, 3, 3, 3], [3, 3, 3, 3, 3], [3, 3, 3, 3, 3]]","[18, 10, 2]",16,17,1,0.061,0.061,0.0,[],0,5,3,1624,0,182,182,medium,True,1,traffic-light-mouselab,21,325790,8,1,0,10,0,9
traffic-light-mouselab,False,3,1,[],"[[5, 6, 4, 8, 7], [8, 7, 6, 7, 4], [6, 6, 2, 5, 4]]","[[1, 1, 1, 1, 1], [3, 3, 3, 3, 3], [3, 3, 3, 3, 3]]","[2, 10, 18]",16,18,4,0.042,0.042,0.0,[],0,5,3,2244,0,126,126,low,False,0,traffic-light-mouselab,22,330295,7,0,0,2,0,9
traffic-light-mouselab,False,3,1,[],"[[7, 3, 5, 3, 6], [6, 7, 3, 3, 10], [6, 4, 4, 2, 7]]","[[1, 1, 1, 1, 1], [3, 3, 3, 3, 3], [3, 3, 3, 3, 3]]","[10, 18, 2]",16,19,0,0.063,0.063,0.0,[],0,5,3,1793,0,190,190,medium,False,0,traffic-light-mouselab,23,334549,7,1,0,10,0,9
traffic-light-mouselab,False,3,1,[],"[[9, 3, 4, 6, 4], [2, 5, 4, 6, 4], [3, 4, 3, 6, 7]]","[[3, 3, 3, 3, 3], [3, 3, 3, 3, 3], [3, 3, 3, 3, 3]]","[10, 2, 18]",16,20,1,0.037,0.037,0.0,[],0,5,3,1520,0,112,112,low,True,1,traffic-light-mouselab,24,338214,5,0,0,2,0,9
traffic-light-mouselab,False,3,1,[],"[[8, 7, 9, 4, 7], [5, 5, 4, 4, 6], [6, 3, 4, 6, 2]]","[[3, 3, 3, 3, 3], [3, 3, 3, 3, 3], [3, 3, 3, 3, 3]]","[2, 10, 18]",16,21,2,0.043,0.043,0.0,[],0,5,3,1451,0,130,130,medium,True,1,traffic-light-mouselab,25,341831,4,0,0,10,0,9
traffic-light-mouselab,False,3,1,[],"[[7, 4, 6, 6, 6], [3, 4, 5, 6, 6], [10, 9, 9, 4, 6]]","[[3, 3, 3, 3, 3], [1, 1, 1, 1, 1], [3, 3, 3, 3, 3]]","[10, 2, 18]",16,22,0,0.085,0.085,0.0,[],0,5,3,1439,0,256,256,low,False,1,traffic-light-mouselab,26,345537,3,0,0,2,0,9
traffic-light-mouselab,False,3,1,[],"[[7, 5, 7, 8, 8], [7, 6, 2, 6, 5], [4, 4, 4, 5, 5]]","[[3, 3, 3, 3, 3], [1, 1, 1, 1, 1], [3, 3, 3, 3, 3]]","[10, 18, 2]",16,23,0,0.068,0.068,0.0,[],0,5,3,1859,0,204,204,hi,False,1,traffic-light-mouselab,27,349144,7,1,0,18,0,9
traffic-light-mouselab,False,3,1,[],"[[3, 6, 3, 4, 4], [5, 6, 5, 4, 7], [8, 4, 3, 6, 6]]","[[3, 3, 3, 3, 3], [3, 3, 3, 3, 3], [3, 3, 3, 3, 3]]","[2, 10, 18]",16,24,0,0.067,0.067,0.0,[],0,5,3,1661,0,200,200,medium,True,1,traffic-light-mouselab,28,352655,5,0,0,10,0,9
traffic-light-mouselab,False,3,1,[],"[[8, 5, 6, 4, 7], [5, 4, 2, 3, 4], [3, 6, 5, 2, 4]]","[[3, 3, 3, 3, 3], [3, 3, 3, 3, 3], [3, 3, 3, 3, 3]]","[10, 18, 2]",16,25,0,0.059,0.059,0.0,[],0,5,3,1690,0,176,176,low,True,2,traffic-light-mouselab,29,356406,3,0,0,2,0,9
traffic-light-mouselab,False,3,1,[],"[[4, 2, 4, 5, 7], [4, 4, 6, 4, 5], [5, 9, 6, 7, 9]]","[[3, 3, 3, 3, 3], [3, 3, 3, 3, 3], [3, 3, 3, 3, 3]]","[2, 10, 18]",16,26,0,0.046,0.046,0.0,[],0,5,3,1325,0,138,138,low,True,0,traffic-light-mouselab,30,359998,4,0,0,2,0,9
traffic-light-mouselab,False,3,1,[],"[[5, 1, 5, 8, 5], [3, 6, 5, 5, 7], [4, 7, 3, 3, 4]]","[[3, 3, 3, 3, 3], [3, 3, 3, 3, 3], [3, 3, 3, 3, 3]]","[2, 10, 18]",16,27,4,0.051,0.051,0.0,[],0,5,3,1528,0,152,152,hi,True,2,traffic-light-mouselab,31,363358,4,0,0,18,0,9
traffic-light-mouselab,False,3,1,[],"[[1, 5, 7, 6, 6], [6, 6, 3, 4, 6], [4, 2, 5, 2, 4]]","[[3, 3, 3, 3, 3], [1, 1, 1, 1, 1], [3, 3, 3, 3, 3]]","[18, 2, 10]",16,28,1,0.041,0.041,0.0,[],0,5,3,1441,0,122,122,low,False,1,traffic-light-mouselab,32,366706,6,1,0,2,0,9
traffic-light-mouselab,False,3,1,[],"[[8, 4, 2, 6, 4], [7, 3, 4, 4, 5], [5, 2, 6, 2, 3]]","[[3, 3, 3, 3, 3], [3, 3, 3, 3, 3], [1, 1, 1, 1, 1]]","[18, 2, 10]",16,29,0,0.069,0.069,0.0,[],0,5,3,1717,0,208,208,medium,False,2,traffic-light-mouselab,33,370055,5,0,0,10,0,9
traffic-light-mouselab,False,3,1,[],"[[8, 6, 2, 6, 4], [8, 7, 4, 7, 4], [8, 8, 8, 2, 5]]","[[3, 3, 3, 3, 3], [3, 3, 3, 3, 3], [1, 1, 1, 1, 1]]","[18, 10, 2]",16,30,0,0.08,0.08,0.0,[],0,5,3,1386,0,240,240,low,False,2,traffic-light-mouselab,34,373025,8,1,0,2,0,9
traffic-light-mouselab,False,3,1,[],"[[2, 2, 4, 4, 7], [5, 5, 6, 6, 6], [6, 5, 5, 6, 5]]","[[3, 3, 3, 3, 3], [1, 1, 1, 1, 1], [3, 3, 3, 3, 3]]","[2, 18, 10]",16,31,0,0.051,0.051,0.0,[],0,5,3,1492,0,154,154,hi,False,1,traffic-light-mouselab,35,377101,5,0,0,18,0,9
traffic-light-mouselab,False,3,1,[],"[[3, 4, 4, 5, 5], [6, 6, 8, 6, 5], [10, 6, 4, 5, 6]]","[[3, 3, 3, 3, 3], [3, 3, 3, 3, 3], [3, 3, 3, 3, 3]]","[10, 2, 18]",16,32,0,0.074,0.074,0.0,[],0,5,3,1769,0,222,222,hi,True,2,traffic-light-mouselab,36,381205,10,1,0,18,0,9
traffic-light-mouselab,True,3,1,"[0, 10, 10, 10, 11, 11, 11, 12, 12, 12, 13, 13, 13, 14, 14, 14, 9, 9, 9, 8, 8, 8, 3, 3, 3]","[[2, 7, 4, 5, 5], [8, 9, 2, 7, 5], [4, 6, 5, 8, 6]]","[[2, 3, 3, 0, 3], [3, 3, 3, 0, 0], [0, 0, 0, 0, 0]]","[10, 2, 18]",16,1,3,0.069,0.060666666666666674,0.008333333333333333,"[10, 11, 12, 13, 14, 9, 8, 3]",8,5,3,27606,25,208,183,medium,True,0,traffic-light-mouselab,4,178194,5,0,4,10,1,10
traffic-light-mouselab,True,3,1,"[10, 11, 12, 13, 14]","[[6, 3, 4, 4, 1], [6, 4, 1, 4, 6], [6, 6, 5, 6, 6]]","[[3, 3, 3, 3, 3], [3, 3, 3, 3, 3], [0, 0, 0, 0, 0]]","[10, 2, 18]",16,2,0,0.06,0.058333333333333334,0.0016666666666666668,"[10, 11, 12, 13, 14]",5,5,3,7919,5,180,175,hi,False,2,traffic-light-mouselab,5,189305,6,1,5,18,5,10
traffic-light-mouselab,False,3,1,"[5, 5, 5, 6, 6, 6, 7, 7, 7, 8, 8, 8, 9, 9, 9]","[[7, 4, 6, 1, 6], [3, 4, 5, 5, 1], [6, 5, 2, 3, 4]]","[[3, 3, 3, 3, 3], [0, 0, 0, 0, 0], [3, 3, 3, 3, 3]]","[10, 18, 2]",16,3,3,0.035,0.030000000000000002,0.005,"[5, 6, 7, 8, 9]",5,5,3,6759,15,106,91,low,True,2,traffic-light-mouselab,7,200377,3,0,0,2,0,10
traffic-light-mouselab,False,3,1,"[10, 11, 12, 13, 14]","[[2, 5, 7, 6, 4], [3, 7, 9, 5, 5], [6, 7, 2, 6, 4]]","[[3, 3, 3, 3, 3], [3, 3, 3, 3, 3], [0, 0, 0, 0, 0]]","[10, 2, 18]",16,4,1,0.063,0.06133333333333334,0.0016666666666666668,"[10, 11, 12, 13, 14]",5,5,3,4095,5,190,185,hi,False,2,traffic-light-mouselab,8,209113,7,1,5,18,5,10
traffic-light-mouselab,False,3,1,"[0, 0, 0, 1, 1, 1, 2, 2, 2]","[[5, 3, 6, 4, 5], [2, 3, 3, 7, 6], [4, 3, 6, 4, 2]]","[[0, 0, 0, 3, 3], [3, 3, 3, 3, 3], [3, 3, 3, 3, 3]]","[18, 10, 2]",16,5,2,0.05,0.047,0.003,"[0, 1, 2]",3,5,3,4623,9,150,141,medium,True,1,traffic-light-mouselab,9,215481,3,0,0,10,0,10
traffic-light-mouselab,False,3,1,"[0, 0, 0, 1, 1, 1, 2, 2, 2, 3, 3, 3, 4, 4, 4]","[[6, 6, 5, 7, 8], [2, 6, 7, 6, 9], [4, 6, 5, 5, 7]]","[[0, 0, 0, 0, 0], [3, 3, 3, 3, 3], [1, 1, 1, 1, 1]]","[18, 10, 2]",16,6,4,0.083,0.078,0.005,"[0, 1, 2, 3, 4]",5,5,3,6423,15,248,233,low,False,2,traffic-light-mouselab,10,234033,7,1,0,2,0,10
traffic-light-mouselab,False,3,1,"[5, 5, 5, 6, 6, 6, 7, 7, 7, 8, 8, 8, 9, 9, 9]","[[6, 5, 4, 5, 7], [6, 3, 3, 5, 7], [4, 7, 4, 4, 3]]","[[3, 3, 3, 3, 3], [0, 0, 0, 0, 0], [3, 3, 3, 3, 3]]","[10, 18, 2]",16,7,4,0.067,0.062000000000000006,0.005,"[5, 6, 7, 8, 9]",5,5,3,6063,15,202,187,hi,True,1,traffic-light-mouselab,11,243217,7,1,15,18,5,10
traffic-light-mouselab,False,3,1,"[10, 11, 12, 13, 14]","[[8, 3, 6, 4, 4], [7, 9, 7, 4, 8], [7, 5, 5, 5, 4]]","[[3, 3, 3, 3, 3], [3, 3, 3, 3, 3], [0, 0, 0, 0, 0]]","[10, 2, 18]",16,8,0,0.073,0.07133333333333333,0.0016666666666666668,"[10, 11, 12, 13, 14]",5,5,3,3944,5,220,215,hi,False,2,traffic-light-mouselab,12,248474,7,1,5,18,5,10
traffic-light-mouselab,False,3,1,"[5, 5, 5, 6, 6, 6, 7]","[[5, 6, 5, 4, 7], [6, 7, 7, 1, 3], [5, 5, 4, 5, 4]]","[[3, 3, 3, 3, 3], [0, 0, 2, 3, 3], [1, 1, 1, 1, 1]]","[10, 18, 2]",16,9,1,0.065,0.06266666666666666,0.0023333333333333335,"[5, 6]",2,5,3,3664,7,196,189,low,False,2,traffic-light-mouselab,13,254618,5,1,0,2,0,10
traffic-light-mouselab,False,3,1,"[0, 0, 0]","[[6, 2, 5, 4, 6], [6, 5, 2, 6, 2], [6, 4, 3, 7, 5]]","[[0, 3, 3, 3, 3], [3, 3, 3, 3, 3], [3, 3, 3, 3, 3]]","[18, 2, 10]",16,10,0,0.06,0.059,0.001,[0],1,5,3,3623,3,180,177,medium,True,2,traffic-light-mouselab,14,259866,6,0,0,10,0,10
