type,is_practice,click_values,payoff_matrix,cost_matrix,weights,weights_deviation,trial_num,selected_option,gross_earnings,net_earnings,click_cost,uncovered_values,num_values_revealed,nudge_type,num_baskets,num_features,reaction_time,points_click_cost,points_action_utility,points_metalevel_reward,problem_id,trial_type,trial_index,time_elapsed,participant_id
mouselab,True,"[15, 5, 13, 7, 22, 23, 24, 21]","[[6, 4, 6, 4, 5], [4, 6, 5, 6, 4], [2, 6, 5, 6, 2], [1, 7, 7, 5, 3], [7, 3, 3, 7, 4]]","[[2, 2, 2, 2, 2], [2, 2, 2, 0, 2], [2, 0, 2, 2, 0], [2, 2, 2, 0, 0], [0, 2, 2, 2, 2]]","[4, 5, 1, 7, 13]",16,1,0,0.048,0.04533333333333334,0.0026666666666666666,[],0,random,5,5,48215,8,144,136,3.229837419612501e+18,attentional-mouselab,4,293912,0
mouselab,True,"[20, 6, 17, 24, 5, 7]","[[5, 5, 7, 8, 8], [4, 3, 5, 6, 6], [3, 1, 6, 4, 4], [5, 6, 8, 4, 6], [2, 8, 4, 5, 3]]","[[2, 2, 2, 2, 2], [2, 2, 2, 0, 0], [2, 2, 2, 2, 0], [2, 0, 2, 2, 0], [2, 0, 2, 2, 2]]","[3, 11, 8, 1, 7]",16,2,1,0.039,0.037,0.002,[],0,random,5,5,26628,6,118,112,1.3911885327210973e+17,attentional-mouselab,5,324718,0
mouselab,False,"[22, 21, 20, 23, 9]","[[3, 2, 1, 4, 5], [2, 8, 8, 4, 5], [1, 4, 4, 9, 7], [6, 7, 5, 4, 4], [6, 3, 5, 4, 8]]","[[2, 2, 0, 2, 2], [2, 2, 0, 2, 2], [0, 2, 2, 0, 2], [2, 2, 2, 2, 0], [2, 2, 2, 2, 0]]","[4, 3, 8, 5, 10]",12,3,4,0.064,0.06233333333333334,0.0016666666666666668,[],0,extreme,5,5,13198,5,191,186,9.191659770910776e+18,attentional-mouselab,7,344136,0
mouselab,False,[],"[[6, 5, 7, 2, 2], [1, 4, 5, 7, 5], [4, 3, 5, 4, 3], [5, 5, 5, 6, 6], [4, 4, 6, 5, 4]]","[[2, 2, 0, 0, 2], [2, 2, 0, 2, 2], [0, 2, 2, 2, 0], [2, 2, 2, 2, 2], [2, 2, 0, 2, 2]]","[10, 4, 4, 10, 2]",16,4,2,0.057,0.057,0.0,[],0,greedy,5,5,5160,0,172,172,2.4108846621983446e+17,attentional-mouselab,8,351822,0
mouselab,False,"[16, 15, 17, 19, 18]","[[6, 3, 3, 2, 5], [5, 4, 8, 5, 5], [4, 5, 6, 3, 3], [6, 5, 5, 7, 6], [5, 6, 4, 6, 5]]","[[2, 2, 0, 0, 2], [2, 0, 0, 2, 2], [2, 0, 2, 0, 2], [2, 2, 2, 2, 2], [2, 2, 2, 2, 2]]","[5, 2, 1, 15, 7]",20,5,2,0.047,0.04533333333333334,0.0016666666666666668,[],0,extreme,5,5,23241,5,140,135,8.253244738370435e+18,attentional-mouselab,9,377188,0
mouselab,False,"[5, 5]","[[3, 6, 5, 5, 8], [4, 3, 3, 3, 3], [8, 4, 1, 4, 7], [7, 3, 6, 5, 3], [6, 2, 6, 6, 5]]","[[2, 0, 2, 2, 0], [2, 2, 0, 2, 2], [0, 2, 2, 0, 2], [0, 2, 2, 2, 2], [2, 2, 2, 2, 2]]","[4, 10, 7, 5, 4]",10,6,0,0.056,0.05533333333333333,0.0006666666666666666,[5],1,greedy,5,5,16177,2,167,165,5.991279848637548e+18,attentional-mouselab,10,395480,0
mouselab,False,"[8, 8, 5, 5]","[[6, 5, 5, 3, 7], [4, 5, 6, 2, 4], [9, 7, 4, 6, 5], [3, 7, 8, 3, 6], [7, 5, 5, 6, 8]]","[[0, 0, 2, 2, 2], [2, 0, 2, 2, 2], [2, 2, 2, 2, 2], [2, 2, 0, 2, 2], [0, 0, 2, 2, 2]]","[2, 11, 2, 5, 10]",18,7,0,0.053,0.051666666666666666,0.0013333333333333333,"[8, 5]",2,random,5,5,12862,4,159,155,1.460958009853599e+19,attentional-mouselab,11,410436,0
mouselab,False,"[10, 10]","[[5, 5, 5, 6, 5], [6, 4, 7, 7, 7], [6, 2, 3, 5, 7], [4, 5, 5, 6, 6], [3, 6, 5, 5, 3]]","[[2, 2, 0, 0, 0], [2, 2, 2, 0, 2], [2, 0, 2, 2, 2], [2, 2, 2, 0, 2], [2, 2, 2, 2, 2]]","[6, 3, 16, 3, 2]",20,8,0,0.054,0.05333333333333333,0.0006666666666666666,[10],1,greedy,5,5,11226,2,162,160,1.207740341736622e+19,attentional-mouselab,12,423533,0
mouselab,False,"[13, 13]","[[3, 3, 7, 5, 6], [3, 3, 6, 7, 5], [3, 6, 4, 4, 5], [5, 6, 6, 7, 2], [8, 7, 8, 7, 5]]","[[2, 2, 0, 2, 2], [2, 2, 2, 0, 2], [0, 2, 2, 2, 0], [2, 2, 2, 0, 2], [2, 2, 0, 2, 2]]","[3, 7, 10, 7, 3]",12,9,3,0.058,0.05733333333333333,0.0006666666666666666,[13],1,greedy,5,5,6943,2,174,172,6.71759268850555e+18,attentional-mouselab,13,432549,0
mouselab,False,"[0, 0, 2, 2]","[[5, 5, 3, 6, 5], [5, 6, 4, 5, 6], [4, 6, 6, 7, 5], [5, 4, 5, 3, 5], [4, 6, 3, 3, 4]]","[[2, 2, 2, 0, 2], [2, 2, 2, 0, 2], [2, 2, 0, 0, 0], [2, 2, 2, 2, 2], [0, 2, 2, 2, 2]]","[10, 7, 4, 3, 6]",10,10,3,0.05,0.04866666666666667,0.0013333333333333333,"[0, 2]",2,random,5,5,14552,4,150,146,7.254012641397054e+18,attentional-mouselab,14,448658,0
mouselab,False,"[24, 24]","[[6, 3, 6, 4, 7], [4, 7, 2, 6, 6], [3, 8, 6, 4, 5], [3, 7, 4, 10, 6], [4, 6, 9, 9, 4]]","[[2, 2, 2, 2, 0], [0, 0, 2, 2, 0], [2, 2, 2, 2, 0], [2, 2, 2, 2, 2], [2, 2, 0, 2, 2]]","[5, 3, 5, 6, 11]",10,11,4,0.053,0.05233333333333333,0.0006666666666666666,[24],1,random,5,5,5940,2,158,156,9.067944074115958e+18,attentional-mouselab,15,456450,0
mouselab,False,"[21, 21]","[[7, 7, 4, 5, 4], [5, 5, 8, 7, 8], [5, 4, 5, 6, 2], [6, 6, 5, 5, 6], [6, 8, 8, 5, 6]]","[[2, 0, 2, 0, 2], [2, 2, 0, 2, 2], [0, 0, 2, 2, 2], [2, 2, 0, 2, 2], [2, 2, 2, 2, 2]]","[10, 2, 1, 2, 15]",26,12,1,0.072,0.07133333333333333,0.0006666666666666666,[21],1,random,5,5,8233,2,216,214,9.457994541270157e+18,attentional-mouselab,16,466871,0
mouselab,False,"[12, 12]","[[7, 1, 5, 5, 7], [6, 3, 5, 5, 5], [7, 7, 6, 2, 5], [6, 6, 9, 9, 5], [4, 7, 3, 7, 4]]","[[0, 2, 2, 2, 0], [0, 2, 2, 2, 2], [0, 2, 2, 2, 2], [0, 2, 2, 2, 2], [2, 2, 2, 0, 2]]","[3, 5, 18, 1, 3]",24,13,2,0.055,0.05433333333333333,0.0006666666666666666,[12],1,greedy,5,5,6645,2,166,164,1.581142680642684e+19,attentional-mouselab,17,475484,0
mouselab,False,"[21, 21, 24, 24]","[[6, 5, 4, 7, 8], [3, 8, 6, 4, 3], [5, 5, 3, 4, 7], [2, 5, 6, 6, 8], [5, 3, 4, 4, 0]]","[[2, 2, 2, 2, 0], [2, 0, 2, 2, 2], [0, 2, 2, 2, 0], [2, 2, 2, 0, 0], [2, 2, 2, 2, 2]]","[7, 6, 3, 5, 9]",8,14,1,0.05,0.04866666666666667,0.0013333333333333333,"[21, 24]",2,greedy,5,5,15353,4,150,146,1.6794282600629385e+19,attentional-mouselab,18,493109,0
mouselab,False,"[0, 0, 5, 5]","[[6, 2, 6, 2, 4], [7, 6, 3, 6, 6], [4, 3, 2, 4, 4], [5, 3, 9, 5, 6], [7, 7, 3, 6, 8]]","[[2, 2, 2, 2, 2], [2, 2, 0, 0, 2], [2, 0, 0, 2, 2], [2, 2, 2, 2, 0], [2, 0, 2, 2, 2]]","[10, 6, 5, 4, 5]",8,15,0,0.059,0.057666666666666665,0.0013333333333333333,"[0, 5]",2,random,5,5,8896,4,177,173,1.6776300132985506e+19,attentional-mouselab,19,503878,0
mouselab,False,"[5, 5, 7, 7, 13, 13]","[[2, 4, 7, 4, 5], [2, 6, 1, 6, 7], [6, 3, 5, 6, 5], [4, 7, 4, 3, 4], [5, 6, 6, 4, 5]]","[[2, 0, 2, 2, 2], [2, 2, 2, 0, 2], [2, 0, 2, 2, 0], [2, 2, 2, 2, 2], [2, 2, 0, 0, 2]]","[4, 13, 10, 2, 1]",22,16,3,0.055,0.053,0.002,"[5, 7, 13]",3,random,5,5,11071,6,164,158,9.012231791750737e+18,attentional-mouselab,20,516823,0
mouselab,False,[],"[[9, 8, 4, 5, 4], [7, 1, 3, 5, 5], [8, 4, 4, 6, 4], [3, 7, 4, 2, 3], [6, 6, 7, 3, 9]]","[[0, 2, 2, 2, 0], [2, 0, 2, 2, 2], [2, 0, 2, 2, 2], [2, 2, 2, 2, 2], [0, 2, 2, 2, 0]]","[15, 2, 2, 4, 7]",20,17,0,0.073,0.073,0.0,[],0,extreme,5,5,3542,0,219,219,1.6512119593612993e+19,attentional-mouselab,21,522176,0
mouselab,False,[],"[[6, 3, 2, 6, 3], [7, 7, 3, 6, 4], [1, 6, 6, 5, 8], [4, 8, 4, 3, 2], [6, 6, 6, 4, 4]]","[[2, 2, 2, 2, 0], [2, 2, 0, 2, 2], [0, 2, 2, 2, 0], [2, 2, 2, 0, 0], [2, 2, 2, 2, 2]]","[3, 6, 13, 7, 1]",16,18,4,0.052,0.052,0.0,[],0,extreme,5,5,7402,0,155,155,2.810359681803398e+18,attentional-mouselab,22,531262,0
mouselab,False,"[24, 24]","[[8, 6, 4, 4, 5], [5, 4, 5, 7, 3], [5, 5, 4, 3, 7], [5, 6, 6, 6, 9], [4, 3, 5, 7, 6]]","[[2, 2, 2, 2, 0], [2, 2, 2, 2, 0], [2, 2, 2, 0, 0], [2, 2, 2, 2, 0], [2, 2, 2, 0, 2]]","[6, 4, 9, 3, 8]",10,19,4,0.06,0.05933333333333333,0.0006666666666666666,[24],1,greedy,5,5,12824,2,180,178,8.060173892147907e+18,attentional-mouselab,23,545981,0
mouselab,False,"[6, 6, 21, 21, 5, 5, 9, 9, 8, 8]","[[3, 6, 5, 6, 5], [4, 6, 3, 5, 5], [5, 5, 2, 3, 5], [7, 5, 7, 5, 5], [6, 4, 5, 6, 5]]","[[0, 2, 0, 2, 2], [2, 2, 2, 2, 2], [2, 0, 0, 0, 2], [2, 0, 2, 2, 2], [2, 2, 2, 2, 2]]","[2, 16, 3, 2, 7]",22,20,1,0.054,0.050666666666666665,0.0033333333333333335,"[6, 21, 5, 9, 8]",5,extreme,5,5,19651,10,161,151,1.7447911631092502e+17,attentional-mouselab,24,567125,0
mouselab,False,"[16, 16]","[[5, 6, 2, 4, 3], [5, 6, 5, 6, 3], [7, 3, 4, 4, 3], [7, 3, 5, 6, 5], [4, 6, 4, 5, 5]]","[[2, 2, 2, 0, 2], [2, 2, 0, 2, 2], [2, 2, 2, 2, 0], [2, 2, 2, 0, 0], [0, 2, 2, 2, 2]]","[5, 3, 2, 12, 8]",16,21,3,0.053,0.05233333333333333,0.0006666666666666666,[16],1,random,5,5,7960,2,158,156,8.542130017440408e+18,attentional-mouselab,25,576758,0
mouselab,False,[],"[[3, 4, 4, 6, 6], [4, 9, 4, 1, 8], [3, 5, 4, 2, 5], [5, 4, 4, 6, 6], [6, 8, 2, 2, 5]]","[[2, 2, 2, 2, 2], [0, 0, 2, 0, 2], [2, 2, 2, 2, 2], [2, 2, 2, 2, 2], [2, 0, 0, 2, 0]]","[1, 10, 3, 1, 15]",26,22,1,0.078,0.078,0.0,[],0,extreme,5,5,2491,0,233,233,9.119517580776992e+18,attentional-mouselab,26,581217,0
mouselab,False,"[3, 3]","[[4, 6, 5, 8, 2], [5, 5, 7, 8, 5], [3, 6, 5, 5, 7], [9, 4, 2, 4, 5], [4, 4, 3, 3, 6]]","[[0, 2, 2, 2, 0], [0, 2, 2, 2, 2], [2, 2, 2, 0, 2], [0, 2, 0, 2, 2], [2, 2, 2, 2, 2]]","[15, 6, 2, 3, 4]",18,23,3,0.067,0.06633333333333334,0.0006666666666666666,[3],1,extreme,5,5,5910,2,202,200,1.6433368985984995e+19,attentional-mouselab,27,588704,0
mouselab,False,"[1, 1]","[[6, 5, 5, 0, 7], [5, 8, 4, 4, 8], [5, 4, 3, 5, 4], [6, 4, 2, 6, 5], [6, 8, 6, 4, 7]]","[[2, 2, 2, 0, 0], [0, 0, 2, 0, 2], [2, 2, 2, 2, 2], [2, 2, 2, 2, 2], [2, 2, 2, 0, 2]]","[11, 6, 8, 2, 3]",14,24,4,0.063,0.06233333333333333,0.0006666666666666666,[1],1,random,5,5,9453,2,188,186,1.260570537398292e+19,attentional-mouselab,28,599556,0
mouselab,False,"[22, 22, 24, 24, 20, 20]","[[6, 3, 7, 7, 8], [5, 6, 5, 3, 1], [4, 5, 9, 6, 6], [7, 4, 6, 6, 4], [5, 8, 5, 9, 2]]","[[2, 0, 2, 2, 0], [2, 2, 2, 2, 2], [0, 2, 2, 2, 2], [0, 0, 2, 2, 2], [2, 2, 2, 0, 2]]","[1, 3, 8, 4, 14]",20,25,0,0.05,0.048,0.002,"[22, 24, 20]",3,random,5,5,8569,6,151,145,1.1303365877844042e+19,attentional-mouselab,29,609778,0
mouselab,False,[],"[[2, 3, 4, 3, 7], [6, 8, 7, 4, 8], [4, 6, 6, 2, 5], [5, 3, 5, 6, 2], [6, 4, 6, 3, 5]]","[[2, 0, 2, 2, 2], [2, 0, 2, 2, 2], [2, 2, 2, 2, 2], [0, 2, 2, 0, 2], [2, 2, 2, 0, 0]]","[5, 10, 8, 6, 1]",12,26,1,0.055,0.055,0.0,[],0,random,5,5,2880,0,165,165,2.27015372846382e+16,attentional-mouselab,30,614406,0
mouselab,False,"[8, 8]","[[4, 8, 4, 7, 4], [4, 6, 5, 6, 1], [5, 4, 6, 7, 4], [1, 4, 5, 5, 4], [7, 5, 6, 7, 5]]","[[2, 2, 2, 0, 0], [2, 0, 2, 2, 2], [2, 2, 2, 0, 0], [2, 2, 2, 2, 2], [2, 2, 2, 0, 2]]","[7, 8, 9, 5, 1]",12,27,3,0.064,0.06333333333333334,0.0006666666666666666,[8],1,greedy,5,5,9687,2,192,190,6.1133168381236e+18,attentional-mouselab,31,625491,0
mouselab,False,"[20, 20, 23, 23, 24, 24]","[[5, 3, 7, 3, 5], [6, 5, 5, 6, 7], [5, 4, 3, 3, 8], [5, 3, 6, 6, 8], [4, 3, 5, 4, 4]]","[[2, 2, 2, 0, 2], [2, 2, 2, 2, 0], [2, 0, 2, 2, 0], [2, 2, 2, 2, 0], [2, 0, 2, 2, 2]]","[4, 1, 11, 1, 13]",24,28,4,0.058,0.056,0.002,"[20, 23, 24]",3,greedy,5,5,10067,6,175,169,2.981354973238445e+18,attentional-mouselab,32,637009,0
mouselab,False,"[0, 0]","[[7, 5, 2, 3, 6], [4, 4, 2, 5, 8], [6, 4, 4, 7, 1], [6, 6, 7, 3, 2], [6, 5, 5, 5, 3]]","[[2, 2, 0, 2, 2], [2, 2, 0, 2, 2], [2, 2, 0, 2, 0], [2, 2, 2, 2, 0], [2, 0, 2, 2, 2]]","[17, 3, 2, 2, 6]",22,29,0,0.064,0.06333333333333334,0.0006666666666666666,[0],1,extreme,5,5,5889,2,191,189,1.8119771025229552e+19,attentional-mouselab,33,644697,0
mouselab,False,"[15, 15]","[[6, 7, 5, 10, 5], [3, 6, 5, 5, 9], [8, 3, 5, 5, 4], [6, 7, 5, 3, 1], [7, 6, 5, 6, 4]]","[[2, 2, 2, 0, 2], [2, 2, 2, 2, 0], [0, 2, 0, 2, 2], [2, 2, 2, 2, 0], [2, 2, 2, 0, 2]]","[4, 1, 2, 22, 1]",32,30,0,0.061,0.06033333333333333,0.0006666666666666666,[15],1,extreme,5,5,5698,2,182,180,1.1285882372266468e+18,attentional-mouselab,34,652099,0
mouselab,False,"[5, 5]","[[4, 6, 2, 8, 5], [5, 6, 6, 6, 8], [6, 7, 8, 3, 0], [7, 6, 6, 7, 7], [3, 6, 5, 3, 6]]","[[2, 0, 0, 0, 2], [2, 2, 2, 2, 2], [0, 2, 2, 2, 0], [2, 2, 0, 2, 2], [2, 2, 2, 2, 2]]","[2, 8, 13, 3, 4]",18,31,0,0.053,0.05233333333333333,0.0006666666666666666,[5],1,extreme,5,5,8180,2,159,157,9.517422732880695e+18,attentional-mouselab,35,661964,0
mouselab,False,[],"[[4, 3, 6, 6, 4], [8, 7, 4, 5, 3], [5, 1, 6, 4, 7], [6, 5, 4, 3, 6], [3, 8, 6, 6, 6]]","[[2, 2, 2, 2, 2], [0, 2, 2, 2, 0], [2, 2, 2, 2, 0], [2, 2, 0, 0, 2], [2, 2, 2, 0, 2]]","[1, 2, 4, 5, 18]",24,32,3,0.052,0.052,0.0,[],0,greedy,5,5,4331,0,155,155,5.992678152867066e+18,attentional-mouselab,36,667726,0
mouselab,True,"[13, 13, 8, 8]","[[5, 4, 2, 3, 9], [3, 7, 7, 7, 4], [6, 1, 4, 1, 6], [3, 3, 4, 9, 3], [6, 4, 10, 4, 5]]","[[2, 2, 2, 0, 0], [2, 0, 2, 2, 0], [2, 2, 2, 2, 2], [2, 2, 2, 0, 2], [2, 2, 2, 0, 2]]","[6, 13, 1, 7, 3]",16,1,3,0.062,0.06066666666666667,0.0013333333333333333,"[13, 8]",2,random,5,5,15704,4,185,181,9.756388240355189e+18,attentional-mouselab,4,123582,1
mouselab,True,"[5, 5, 20, 20, 2, 2, 18, 18]","[[4, 4, 3, 8, 1], [6, 5, 5, 7, 3], [6, 1, 2, 3, 4], [6, 4, 7, 8, 6], [4, 5, 5, 6, 7]]","[[0, 2, 2, 2, 2], [2, 2, 0, 2, 2], [0, 0, 2, 0, 2], [0, 2, 2, 2, 2], [2, 2, 2, 2, 2]]","[2, 10, 8, 5, 5]",12,2,3,0.06,0.05733333333333333,0.0026666666666666666,"[5, 20, 2, 18]",4,random,5,5,15703,8,180,172,1.5124496326205227e+19,attentional-mouselab,5,142853,1
mouselab,False,"[12, 12]","[[6, 5, 8, 4, 6], [5, 5, 7, 6, 4], [6, 6, 6, 4, 9], [2, 2, 6, 4, 7], [7, 5, 5, 6, 4]]","[[2, 2, 0, 2, 2], [2, 2, 0, 2, 2], [2, 2, 2, 2, 0], [2, 0, 0, 2, 2], [0, 2, 2, 2, 2]]","[6, 5, 6, 7, 6]",2,3,2,0.064,0.06333333333333334,0.0006666666666666666,[12],1,greedy,5,5,5150,2,191,189,1.7559539325082555e+18,attentional-mouselab,7,152831,1
mouselab,False,"[14, 14, 24, 24, 10, 10, 12, 12]","[[1, 5, 5, 4, 2], [5, 1, 5, 5, 8], [3, 3, 7, 6, 6], [3, 5, 7, 5, 7], [4, 4, 1, 2, 4]]","[[0, 2, 0, 2, 2], [2, 0, 2, 2, 0], [2, 2, 2, 2, 2], [2, 2, 2, 2, 2], [2, 2, 0, 0, 2]]","[9, 5, 1, 9, 6]",12,4,4,0.05,0.04733333333333334,0.0026666666666666666,"[14, 24, 10, 12]",4,extreme,5,5,16604,8,151,143,1.3978845886108006e+19,attentional-mouselab,8,171270,1
mouselab,False,"[12, 12]","[[9, 1, 8, 3, 5], [5, 7, 4, 7, 5], [4, 6, 6, 5, 7], [5, 6, 7, 5, 5], [6, 8, 7, 2, 4]]","[[2, 0, 0, 2, 2], [2, 2, 0, 2, 2], [2, 0, 2, 2, 2], [2, 2, 2, 2, 2], [2, 2, 0, 0, 2]]","[5, 2, 14, 8, 1]",20,5,2,0.065,0.06433333333333334,0.0006666666666666666,[12],1,random,5,5,5544,2,195,193,1.0728131733677605e+19,attentional-mouselab,9,178492,1
mouselab,False,"[19, 19, 6, 6, 17, 17]","[[7, 7, 4, 5, 4], [5, 5, 8, 7, 8], [5, 4, 5, 6, 2], [6, 6, 5, 5, 6], [6, 8, 8, 5, 6]]","[[2, 0, 2, 2, 2], [2, 2, 2, 2, 0], [0, 0, 2, 2, 0], [2, 2, 2, 2, 2], [2, 2, 0, 2, 2]]","[7, 8, 1, 13, 1]",20,6,4,0.059,0.056999999999999995,0.002,"[19, 6, 17]",3,extreme,5,5,7862,6,178,172,9.457994541270157e+18,attentional-mouselab,10,189821,1
mouselab,False,"[5, 5, 8, 8, 2, 2, 6, 6]","[[6, 2, 5, 8, 4], [3, 5, 5, 4, 7], [5, 4, 4, 7, 4], [7, 7, 5, 5, 2], [7, 5, 5, 4, 6]]","[[2, 2, 2, 0, 0], [2, 2, 2, 2, 0], [2, 2, 2, 2, 2], [0, 2, 2, 2, 2], [0, 2, 0, 2, 2]]","[3, 18, 3, 5, 1]",24,7,3,0.049,0.04633333333333334,0.0026666666666666666,"[5, 8, 2, 6]",4,greedy,5,5,12689,8,146,138,5.996841966507962e+18,attentional-mouselab,11,204276,1
mouselab,False,[],"[[7, 5, 4, 5, 6], [2, 4, 3, 7, 6], [8, 6, 5, 6, 7], [5, 7, 5, 7, 5], [7, 6, 6, 3, 4]]","[[0, 2, 2, 2, 2], [2, 0, 2, 0, 2], [0, 2, 2, 2, 2], [2, 2, 2, 2, 2], [0, 2, 2, 2, 0]]","[3, 7, 4, 15, 1]",20,8,0,0.05,0.05,0.0,[],0,greedy,5,5,2418,0,149,149,1.2142532938358028e+19,attentional-mouselab,12,208146,1
mouselab,False,[],"[[5, 5, 7, 6, 3], [8, 5, 3, 6, 2], [4, 2, 8, 3, 6], [5, 5, 7, 5, 2], [5, 6, 5, 7, 4]]","[[2, 2, 0, 2, 0], [2, 2, 2, 2, 2], [0, 0, 0, 2, 2], [2, 2, 2, 2, 0], [2, 2, 2, 2, 2]]","[12, 6, 7, 2, 3]",14,9,2,0.062,0.062,0.0,[],0,extreme,5,5,2924,0,187,187,5.436091006106421e+18,attentional-mouselab,13,212455,1
mouselab,False,"[2, 2, 22, 22, 10, 10, 3, 3, 19, 19, 13, 13]","[[3, 2, 5, 3, 6], [4, 1, 8, 4, 4], [4, 6, 4, 4, 4], [7, 5, 7, 3, 5], [4, 4, 5, 7, 6]]","[[0, 0, 2, 2, 2], [2, 2, 0, 2, 2], [2, 2, 0, 2, 2], [2, 0, 0, 2, 2], [2, 2, 2, 2, 2]]","[1, 10, 1, 5, 13]",22,10,2,0.063,0.059,0.004,"[2, 22, 10, 3, 19, 13]",6,greedy,5,5,14173,12,189,177,1.0679498637987279e+19,attentional-mouselab,14,228317,1
mouselab,False,"[5, 5, 24, 24, 20, 20, 3, 3, 6, 6]","[[6, 5, 4, 3, 6], [4, 3, 6, 5, 1], [4, 5, 4, 7, 7], [7, 3, 7, 5, 6], [5, 4, 7, 5, 4]]","[[2, 2, 0, 2, 2], [2, 2, 0, 2, 0], [2, 2, 2, 2, 0], [2, 2, 0, 2, 2], [2, 2, 0, 2, 2]]","[3, 5, 16, 3, 3]",20,11,2,0.049,0.04566666666666667,0.0033333333333333335,"[5, 24, 20, 3, 6]",5,greedy,5,5,19304,10,148,138,6.94515461378181e+18,attentional-mouselab,15,249096,1
mouselab,False,"[9, 9, 22, 22]","[[7, 5, 7, 3, 4], [3, 4, 6, 7, 5], [7, 5, 6, 3, 6], [5, 2, 2, 6, 3], [3, 6, 6, 4, 7]]","[[2, 2, 0, 2, 2], [0, 0, 0, 2, 2], [0, 2, 2, 2, 2], [2, 2, 2, 2, 2], [2, 2, 2, 0, 2]]","[4, 6, 8, 4, 8]",8,12,2,0.056,0.05466666666666667,0.0013333333333333333,"[9, 22]",2,greedy,5,5,5196,4,168,164,5.448344544979616e+18,attentional-mouselab,16,255530,1
mouselab,False,"[5, 5, 1, 1, 24, 24, 9, 9]","[[3, 7, 8, 3, 5], [7, 4, 3, 4, 7], [7, 5, 6, 4, 8], [4, 6, 4, 3, 5], [8, 3, 7, 6, 8]]","[[2, 2, 2, 2, 2], [2, 2, 0, 0, 2], [2, 2, 0, 0, 2], [2, 2, 2, 2, 2], [2, 2, 0, 0, 2]]","[3, 4, 12, 9, 2]",18,13,4,0.067,0.06433333333333334,0.0026666666666666666,"[5, 1, 24, 9]",4,random,5,5,7975,8,200,192,9.672768658614673e+18,attentional-mouselab,17,267882,1
mouselab,False,"[22, 22, 2, 2, 8, 8, 18, 18, 9, 9, 5, 5]","[[4, 6, 4, 7, 7], [4, 3, 9, 5, 4], [6, 6, 2, 5, 3], [3, 5, 5, 2, 2], [6, 6, 4, 6, 7]]","[[2, 2, 2, 0, 2], [2, 0, 0, 2, 2], [2, 2, 0, 2, 2], [0, 2, 2, 2, 2], [2, 2, 2, 0, 2]]","[11, 7, 8, 1, 3]",16,14,3,0.057,0.053000000000000005,0.004,"[22, 2, 8, 18, 9, 5]",6,greedy,5,5,9145,12,172,160,2.962010817410924e+18,attentional-mouselab,18,277985,1
mouselab,False,[],"[[7, 4, 5, 3, 4], [5, 3, 4, 7, 3], [7, 5, 2, 3, 4], [6, 1, 5, 6, 8], [6, 7, 6, 4, 5]]","[[0, 0, 2, 2, 0], [2, 2, 2, 2, 2], [0, 2, 2, 2, 2], [2, 2, 0, 2, 2], [0, 2, 2, 2, 2]]","[1, 21, 3, 4, 1]",30,15,0,0.054,0.054,0.0,[],0,greedy,5,5,2023,0,163,163,9.961488159007822e+18,attentional-mouselab,19,281247,1
mouselab,False,[],"[[10, 6, 2, 6, 4], [5, 6, 4, 5, 4], [6, 6, 4, 6, 8], [5, 7, 5, 3, 5], [4, 4, 3, 6, 5]]","[[2, 2, 0, 2, 2], [2, 2, 2, 0, 2], [2, 2, 2, 2, 0], [2, 2, 2, 0, 2], [2, 2, 0, 2, 0]]","[3, 12, 6, 6, 3]",12,16,4,0.051,0.051,0.0,[],0,random,5,5,2260,0,153,153,5.042804856389504e+18,attentional-mouselab,20,284746,1
mouselab,False,"[11, 11, 4, 4, 2, 2, 13, 13, 20, 20]","[[7, 5, 5, 7, 4], [1, 6, 3, 2, 6], [6, 3, 6, 5, 4], [8, 6, 4, 7, 5], [1, 8, 7, 5, 4]]","[[2, 0, 2, 2, 2], [0, 0, 2, 2, 2], [2, 2, 2, 2, 0], [2, 2, 2, 2, 2], [2, 0, 2, 0, 2]]","[9, 1, 11, 5, 4]",16,17,1,0.049,0.04566666666666667,0.0033333333333333335,"[11, 4, 2, 13, 20]",5,greedy,5,5,9066,10,146,136,1.3963410223792077e+19,attentional-mouselab,21,295028,1
mouselab,False,"[5, 5, 2, 2, 24, 24, 20, 20]","[[3, 4, 5, 4, 2], [4, 5, 5, 2, 3], [8, 7, 7, 2, 5], [6, 5, 1, 7, 6], [7, 5, 5, 6, 7]]","[[2, 2, 2, 2, 0], [2, 2, 2, 0, 2], [2, 0, 2, 0, 2], [2, 0, 0, 2, 2], [2, 2, 2, 2, 2]]","[2, 6, 4, 16, 2]",20,18,1,0.052,0.04933333333333333,0.0026666666666666666,"[5, 2, 24, 20]",4,extreme,5,5,13892,8,156,148,6.765981897810233e+18,attentional-mouselab,22,322095,1
mouselab,False,"[10, 10]","[[6, 7, 5, 8, 5], [7, 4, 5, 7, 6], [6, 7, 6, 6, 5], [7, 6, 7, 7, 3], [8, 2, 1, 4, 7]]","[[2, 2, 2, 2, 2], [2, 2, 2, 0, 2], [2, 2, 0, 0, 2], [2, 2, 2, 2, 2], [0, 0, 0, 2, 2]]","[2, 3, 12, 12, 1]",24,19,0,0.066,0.06533333333333334,0.0006666666666666666,[10],1,extreme,5,5,3633,2,197,195,1.5999323256805083e+19,attentional-mouselab,23,326842,1
mouselab,False,"[5, 5, 4, 4]","[[1, 7, 4, 5, 6], [6, 7, 8, 3, 6], [6, 3, 3, 2, 1], [7, 3, 4, 7, 4], [6, 4, 2, 6, 4]]","[[2, 2, 2, 2, 2], [2, 2, 2, 0, 2], [2, 0, 0, 2, 0], [2, 2, 2, 2, 2], [0, 2, 2, 0, 2]]","[12, 4, 2, 4, 8]",16,20,0,0.041,0.03966666666666667,0.0013333333333333333,"[5, 4]",2,random,5,5,13117,4,124,120,8.393671641609005e+18,attentional-mouselab,24,341219,1
mouselab,False,"[9, 9, 11, 11]","[[6, 6, 4, 5, 7], [3, 5, 4, 7, 8], [5, 6, 7, 8, 3], [4, 7, 3, 2, 5], [5, 0, 7, 7, 6]]","[[2, 0, 2, 0, 2], [0, 2, 2, 2, 2], [2, 2, 2, 2, 2], [0, 2, 2, 0, 2], [2, 2, 2, 2, 0]]","[2, 1, 2, 1, 24]",36,21,4,0.059,0.057666666666666665,0.0013333333333333333,"[9, 11]",2,random,5,5,6030,4,177,173,1.6861388886506742e+19,attentional-mouselab,25,348330,1
mouselab,False,"[8, 8]","[[5, 9, 4, 6, 6], [5, 7, 7, 7, 2], [4, 4, 4, 2, 7], [7, 5, 6, 5, 6], [5, 6, 4, 10, 6]]","[[2, 2, 2, 2, 0], [2, 2, 2, 2, 0], [2, 2, 2, 2, 2], [0, 2, 0, 2, 2], [2, 2, 2, 0, 0]]","[6, 17, 1, 3, 3]",22,22,3,0.067,0.06633333333333334,0.0006666666666666666,[8],1,random,5,5,3497,2,202,200,1.5851253189176525e+19,attentional-mouselab,26,353155,1
mouselab,False,[],"[[5, 6, 4, 5, 5], [5, 2, 6, 7, 4], [8, 3, 5, 4, 5], [9, 3, 5, 4, 3], [2, 3, 7, 5, 6]]","[[2, 2, 2, 2, 0], [2, 2, 2, 2, 2], [0, 2, 2, 0, 2], [0, 2, 2, 2, 2], [2, 0, 0, 2, 2]]","[5, 8, 1, 10, 6]",12,23,0,0.058,0.058,0.0,[],0,greedy,5,5,2575,0,175,175,2.9208953339233705e+18,attentional-mouselab,27,356935,1
mouselab,False,"[3, 3]","[[6, 7, 6, 6, 4], [6, 7, 7, 8, 4], [7, 6, 3, 5, 2], [3, 4, 4, 5, 7], [7, 4, 4, 7, 4]]","[[2, 0, 2, 2, 2], [2, 2, 2, 0, 2], [2, 2, 2, 0, 2], [2, 0, 0, 2, 2], [2, 2, 2, 2, 0]]","[9, 2, 10, 6, 3]",14,24,3,0.057,0.05633333333333333,0.0006666666666666666,[3],1,random,5,5,3610,2,171,169,8.161926795933213e+17,attentional-mouselab,28,361931,1
mouselab,False,[],"[[5, 3, 4, 6, 6], [3, 8, 4, 5, 5], [4, 7, 5, 7, 7], [5, 4, 5, 4, 9], [5, 7, 6, 6, 5]]","[[2, 2, 2, 2, 2], [2, 2, 2, 2, 2], [2, 2, 2, 0, 2], [2, 2, 0, 2, 0], [2, 0, 2, 0, 0]]","[10, 8, 1, 6, 5]",12,25,4,0.062,0.062,0.0,[],0,random,5,5,3002,0,186,186,1.487187888482985e+19,attentional-mouselab,29,368950,1
mouselab,False,"[19, 19, 15, 15, 18, 18]","[[3, 6, 7, 5, 7], [6, 2, 6, 4, 7], [3, 4, 8, 7, 7], [6, 4, 4, 4, 5], [8, 7, 6, 4, 3]]","[[0, 2, 2, 2, 0], [2, 0, 2, 2, 2], [0, 2, 2, 2, 2], [2, 2, 0, 2, 2], [2, 2, 2, 0, 2]]","[2, 4, 2, 15, 7]",20,26,0,0.061,0.059,0.002,"[19, 15, 18]",3,random,5,5,10439,6,182,176,1.707213469686531e+19,attentional-mouselab,30,381449,1
mouselab,False,"[16, 16]","[[6, 9, 3, 7, 7], [3, 3, 6, 3, 2], [4, 5, 2, 5, 7], [6, 5, 3, 8, 4], [5, 6, 1, 5, 1]]","[[0, 0, 2, 2, 2], [2, 2, 2, 2, 2], [2, 0, 2, 2, 2], [2, 2, 2, 2, 2], [0, 2, 0, 2, 0]]","[3, 6, 1, 2, 18]",24,27,1,0.056,0.05533333333333333,0.0006666666666666666,[16],1,extreme,5,5,4082,2,168,166,6.443413348661413e+17,attentional-mouselab,31,386713,1
mouselab,False,"[9, 9, 0, 0, 15, 15, 20, 20, 22, 22, 23, 23]","[[4, 2, 6, 6, 7], [2, 5, 7, 2, 4], [7, 6, 3, 4, 5], [5, 4, 5, 6, 5], [5, 6, 3, 1, 5]]","[[2, 2, 2, 2, 2], [2, 0, 0, 0, 2], [2, 2, 0, 2, 2], [2, 2, 2, 2, 2], [2, 0, 2, 2, 0]]","[7, 8, 2, 3, 10]",14,28,0,0.041,0.037000000000000005,0.004,"[9, 0, 15, 20, 22, 23]",6,random,5,5,11002,12,123,111,9.36382150710146e+18,attentional-mouselab,32,398908,1
mouselab,False,"[7, 7, 23, 23, 2, 2]","[[6, 4, 8, 5, 5], [6, 4, 7, 6, 8], [2, 4, 8, 10, 3], [4, 8, 4, 5, 4], [7, 4, 10, 4, 5]]","[[2, 2, 2, 2, 2], [2, 2, 2, 0, 2], [0, 0, 2, 0, 2], [0, 2, 2, 2, 2], [2, 2, 0, 2, 2]]","[13, 7, 3, 5, 2]",16,29,2,0.072,0.06999999999999999,0.002,"[7, 23, 2]",3,extreme,5,5,7829,6,217,211,2.070920718649958e+17,attentional-mouselab,33,407774,1
mouselab,False,"[15, 15]","[[6, 5, 7, 4, 6], [3, 6, 4, 3, 7], [10, 3, 5, 3, 5], [6, 5, 6, 4, 6], [3, 3, 4, 7, 7]]","[[2, 2, 2, 2, 2], [2, 0, 2, 2, 2], [0, 2, 0, 2, 2], [2, 2, 2, 2, 0], [0, 2, 2, 0, 2]]","[4, 3, 4, 18, 1]",24,30,0,0.061,0.06033333333333333,0.0006666666666666666,[15],1,extreme,5,5,4217,2,184,182,4.685144615339053e+17,attentional-mouselab,34,413297,1
mouselab,False,"[8, 8, 3, 3]","[[4, 3, 5, 4, 6], [1, 7, 5, 7, 4], [5, 3, 4, 2, 6], [7, 7, 5, 10, 5], [1, 8, 6, 3, 2]]","[[2, 2, 2, 2, 2], [0, 0, 2, 2, 2], [2, 0, 2, 2, 2], [2, 2, 2, 0, 2], [0, 2, 2, 0, 2]]","[14, 2, 2, 4, 8]",20,31,3,0.046,0.04466666666666667,0.0013333333333333333,"[8, 3]",2,extreme,5,5,4948,4,138,134,6.992723621063904e+18,attentional-mouselab,35,419416,1
mouselab,False,"[0, 0, 10, 10, 3, 3]","[[3, 4, 7, 7, 5], [6, 5, 5, 4, 5], [3, 3, 5, 4, 7], [7, 3, 5, 6, 8], [5, 7, 5, 7, 1]]","[[2, 2, 2, 2, 2], [2, 2, 2, 2, 2], [2, 0, 0, 2, 0], [2, 2, 2, 2, 0], [2, 0, 2, 2, 0]]","[10, 1, 10, 4, 5]",16,32,4,0.054,0.052,0.002,"[0, 10, 3]",3,extreme,5,5,8335,6,162,156,4.983591930418866e+18,attentional-mouselab,36,429439,1
mouselab,True,"[0, 0, 7, 7, 2, 2, 5, 5, 15, 15, 20, 20, 3, 3, 13, 13, 23, 23, 6, 6, 9, 9, 1, 11, 11, 1, 4, 4, 14, 14, 19, 19, 24, 24, 16, 16, 21, 21, 11, 6]","[[8, 5, 6, 7, 6], [4, 6, 5, 10, 5], [6, 3, 7, 4, 4], [5, 6, 6, 7, 6], [4, 5, 4, 7, 7]]","[[2, 2, 2, 2, 2], [2, 2, 2, 0, 2], [0, 2, 0, 2, 2], [2, 2, 0, 0, 2], [2, 2, 0, 2, 2]]","[6, 2, 9, 7, 6]",8,1,3,0.063,0.050333333333333334,0.012666666666666666,"[0, 7, 2, 5, 15, 20, 3, 13, 23, 6, 9, 11, 1, 4, 14, 19, 24, 16, 21]",19,random,5,5,63703,38,189,151,1.777273131283097e+19,attentional-mouselab,4,180791,2
mouselab,True,"[0, 5, 10, 15, 20]","[[4, 3, 2, 6, 4], [6, 7, 6, 4, 6], [7, 5, 3, 5, 3], [5, 7, 4, 2, 5], [6, 6, 0, 6, 3]]","[[2, 0, 2, 0, 0], [2, 2, 2, 2, 0], [2, 2, 2, 2, 2], [2, 2, 2, 2, 2], [2, 2, 0, 2, 0]]","[3, 6, 5, 2, 14]",16,2,0,0.059,0.05733333333333333,0.0016666666666666668,[],0,random,5,5,8929,5,177,172,5.173913428407716e+18,attentional-mouselab,5,196176,2
mouselab,False,"[3, 3, 13, 13]","[[6, 4, 3, 3, 2], [4, 1, 5, 6, 2], [3, 5, 4, 6, 3], [4, 3, 5, 2, 4], [6, 5, 7, 8, 0]]","[[2, 2, 2, 2, 2], [0, 0, 2, 2, 2], [2, 2, 2, 2, 2], [2, 2, 0, 2, 0], [2, 2, 2, 0, 0]]","[5, 6, 2, 4, 13]",14,3,3,0.058,0.05666666666666667,0.0013333333333333333,"[3, 13]",2,extreme,5,5,8953,4,175,171,9.723784717019638e+18,attentional-mouselab,7,211263,2
mouselab,False,"[0, 15, 20]","[[4, 3, 6, 5, 6], [8, 4, 2, 6, 4], [6, 7, 7, 3, 6], [2, 4, 5, 4, 5], [5, 3, 3, 5, 4]]","[[2, 0, 2, 2, 2], [0, 2, 2, 2, 2], [0, 0, 2, 0, 2], [2, 2, 2, 2, 2], [2, 2, 0, 2, 2]]","[10, 10, 4, 3, 3]",16,4,0,0.055,0.054,0.001,[],0,greedy,5,5,3674,3,165,162,1.669808184050814e+19,attentional-mouselab,8,218645,2
mouselab,False,"[13, 13, 8, 8, 7, 7, 17, 17]","[[4, 6, 5, 4, 1], [8, 5, 6, 4, 6], [4, 4, 2, 6, 6], [4, 9, 6, 3, 4], [6, 4, 4, 3, 6]]","[[2, 2, 2, 2, 0], [0, 2, 2, 2, 2], [2, 2, 2, 2, 0], [2, 0, 2, 2, 2], [2, 0, 0, 2, 2]]","[1, 14, 4, 10, 1]",24,5,2,0.054,0.051333333333333335,0.0026666666666666666,"[13, 8, 7, 17]",4,extreme,5,5,12896,8,161,153,5.980583859709009e+18,attentional-mouselab,9,232892,2
mouselab,False,[],"[[5, 5, 5, 5, 4], [8, 5, 7, 8, 7], [4, 2, 4, 0, 8], [6, 5, 4, 2, 4], [5, 6, 6, 5, 4]]","[[2, 2, 0, 2, 2], [0, 2, 2, 2, 0], [2, 2, 2, 2, 0], [0, 2, 2, 2, 0], [2, 2, 2, 2, 2]]","[1, 2, 9, 14, 4]",22,6,2,0.045,0.045,0.0,[],0,greedy,5,5,5255,0,135,135,1.569972312075569e+19,attentional-mouselab,10,239770,2
mouselab,False,"[12, 12, 11, 11, 18, 18, 14, 14, 4, 4, 19, 19, 24, 24, 5, 5]","[[5, 5, 4, 7, 7], [7, 5, 9, 4, 9], [4, 3, 4, 5, 3], [2, 6, 5, 7, 7], [4, 8, 3, 7, 4]]","[[0, 2, 2, 2, 2], [2, 0, 0, 2, 0], [2, 2, 2, 2, 2], [0, 0, 2, 2, 2], [2, 2, 2, 2, 2]]","[3, 10, 5, 9, 3]",14,7,1,0.053,0.04766666666666666,0.005333333333333333,"[12, 11, 18, 14, 4, 19, 24, 5]",8,extreme,5,5,31072,16,158,142,9.206490961615036e+18,attentional-mouselab,11,272403,2
mouselab,False,"[0, 0, 20, 20, 15, 15, 5, 5, 12, 17]","[[6, 3, 5, 7, 4], [4, 5, 6, 4, 7], [4, 0, 6, 4, 6], [7, 4, 5, 3, 3], [6, 7, 6, 2, 3]]","[[2, 2, 2, 0, 2], [2, 2, 0, 0, 0], [2, 0, 2, 2, 2], [2, 2, 2, 2, 2], [2, 2, 2, 0, 2]]","[6, 6, 1, 5, 12]",12,8,2,0.056,0.05266666666666667,0.0033333333333333335,"[0, 20, 15, 5]",4,extreme,5,5,27128,10,169,159,2.7699448792141066e+18,attentional-mouselab,12,301019,2
mouselab,False,"[9, 4, 4, 9, 24, 24, 20, 20]","[[5, 6, 7, 7, 4], [6, 8, 3, 5, 3], [3, 6, 5, 5, 10], [8, 8, 8, 6, 3], [3, 5, 5, 5, 4]]","[[2, 2, 2, 2, 2], [2, 0, 2, 2, 2], [2, 2, 2, 2, 0], [2, 0, 2, 2, 0], [2, 2, 0, 0, 2]]","[7, 1, 2, 8, 12]",18,9,1,0.062,0.059333333333333335,0.0026666666666666666,"[4, 9, 24, 20]",4,greedy,5,5,11085,8,186,178,1.1608925192764713e+19,attentional-mouselab,13,313829,2
mouselab,False,"[12, 12, 20, 20, 11, 11, 1, 1, 21, 13, 14, 10]","[[4, 4, 7, 8, 5], [4, 3, 4, 5, 6], [4, 5, 4, 2, 6], [5, 7, 8, 3, 4], [4, 7, 8, 6, 6]]","[[2, 2, 2, 2, 0], [0, 2, 2, 2, 2], [2, 2, 2, 2, 2], [2, 2, 0, 2, 0], [2, 2, 2, 0, 0]]","[7, 5, 7, 4, 7]",6,10,2,0.062,0.057999999999999996,0.004,"[12, 20, 11, 1]",4,random,5,5,46346,12,185,173,1.1255702964749294e+19,attentional-mouselab,14,361515,2
mouselab,False,"[0, 0, 1, 1, 2, 2, 3, 3, 19, 19]","[[6, 4, 2, 5, 7], [5, 7, 5, 3, 4], [4, 4, 5, 6, 6], [6, 4, 4, 7, 3], [3, 3, 8, 0, 6]]","[[2, 2, 2, 2, 0], [2, 2, 2, 2, 2], [2, 2, 2, 2, 2], [0, 2, 0, 2, 2], [0, 2, 0, 0, 2]]","[8, 3, 6, 10, 3]",12,11,2,0.042,0.03866666666666667,0.0033333333333333335,"[0, 1, 2, 3, 19]",5,greedy,5,5,20717,10,125,115,3.7755214051149056e+18,attentional-mouselab,15,384264,2
mouselab,False,[],"[[9, 8, 4, 5, 4], [7, 1, 3, 5, 5], [8, 4, 4, 6, 4], [3, 7, 4, 2, 3], [6, 6, 7, 3, 9]]","[[0, 2, 0, 2, 0], [2, 2, 2, 2, 2], [0, 0, 2, 2, 2], [2, 2, 2, 2, 2], [0, 2, 2, 2, 2]]","[6, 2, 10, 6, 6]",8,12,0,0.067,0.067,0.0,[],0,random,5,5,12716,0,202,202,1.6512119593612993e+19,attentional-mouselab,16,398506,2
mouselab,False,"[15, 15, 20, 20, 0, 0, 18, 18, 16, 16]","[[5, 5, 7, 8, 8], [4, 3, 5, 6, 6], [3, 1, 6, 4, 4], [5, 6, 8, 4, 6], [2, 8, 4, 5, 3]]","[[2, 2, 0, 2, 2], [2, 2, 2, 0, 2], [2, 2, 0, 2, 0], [2, 2, 0, 2, 0], [2, 2, 2, 2, 2]]","[7, 4, 3, 15, 1]",20,13,2,0.07,0.06666666666666668,0.0033333333333333335,"[15, 20, 0, 18, 16]",5,greedy,5,5,37473,10,211,201,1.3911885327210973e+17,attentional-mouselab,17,437226,2
mouselab,False,"[22, 13, 8, 8, 3, 3]","[[6, 3, 7, 7, 8], [5, 6, 5, 3, 1], [4, 5, 9, 6, 6], [7, 4, 6, 6, 4], [5, 8, 5, 9, 2]]","[[2, 2, 2, 2, 0], [2, 2, 2, 2, 0], [0, 2, 0, 2, 2], [0, 2, 2, 2, 2], [2, 2, 2, 0, 2]]","[4, 1, 6, 11, 8]",14,14,3,0.068,0.066,0.002,"[8, 3]",2,extreme,5,5,9668,6,205,199,1.1303365877844042e+19,attentional-mouselab,18,448106,2
mouselab,False,"[10, 10, 20, 20, 14, 9]","[[5, 6, 6, 3, 4], [4, 6, 5, 6, 6], [6, 6, 4, 6, 4], [7, 4, 7, 4, 4], [3, 5, 5, 5, 5]]","[[2, 0, 2, 0, 2], [2, 0, 2, 2, 2], [2, 0, 2, 2, 2], [2, 2, 0, 2, 2], [2, 2, 0, 2, 2]]","[5, 9, 9, 4, 3]",12,15,4,0.047,0.045,0.002,"[10, 20]",2,greedy,5,5,14088,6,141,135,1.3273438515743738e+19,attentional-mouselab,19,463604,2
mouselab,False,"[5, 5]","[[4, 4, 3, 8, 1], [6, 5, 5, 7, 3], [6, 1, 2, 3, 4], [6, 4, 7, 8, 6], [4, 5, 5, 6, 7]]","[[2, 2, 2, 0, 0], [2, 2, 2, 2, 2], [0, 0, 0, 2, 2], [0, 2, 2, 2, 2], [2, 2, 2, 2, 2]]","[3, 5, 8, 7, 7]",8,16,0,0.053,0.05233333333333333,0.0006666666666666666,[5],1,extreme,5,5,2191,2,160,158,1.5124496326205227e+19,attentional-mouselab,20,466947,2
mouselab,False,"[11, 11]","[[7, 6, 3, 6, 3], [6, 6, 6, 4, 7], [2, 7, 5, 4, 4], [5, 4, 5, 5, 6], [5, 5, 4, 9, 6]]","[[2, 2, 2, 2, 2], [2, 2, 0, 2, 2], [0, 2, 0, 0, 2], [2, 2, 2, 2, 2], [2, 0, 2, 2, 0]]","[4, 9, 2, 5, 10]",14,17,1,0.054,0.05333333333333333,0.0006666666666666666,[11],1,random,5,5,7127,2,162,160,6.272482606243725e+18,attentional-mouselab,21,476473,2
mouselab,False,[],"[[8, 4, 7, 4, 6], [9, 7, 6, 6, 3], [6, 6, 5, 0, 6], [6, 7, 5, 5, 5], [8, 6, 6, 6, 3]]","[[0, 2, 2, 2, 2], [0, 2, 2, 2, 2], [2, 2, 2, 2, 2], [0, 2, 0, 0, 2], [0, 2, 2, 2, 2]]","[1, 4, 2, 5, 18]",24,18,0,0.077,0.077,0.0,[],0,greedy,5,5,3458,0,230,230,1.7809061008987599e+19,attentional-mouselab,22,481255,2
mouselab,False,"[11, 11, 19, 19, 14, 14]","[[6, 7, 5, 5, 2], [3, 8, 3, 5, 4], [7, 6, 6, 5, 5], [3, 6, 4, 7, 6], [6, 6, 4, 6, 4]]","[[2, 0, 2, 2, 0], [2, 0, 0, 2, 2], [2, 2, 2, 2, 2], [2, 0, 2, 2, 2], [0, 2, 2, 2, 2]]","[3, 2, 10, 8, 7]",14,19,0,0.053,0.051,0.002,"[11, 19, 14]",3,extreme,5,5,8228,6,160,154,1.0662700296018545e+19,attentional-mouselab,23,490794,2
mouselab,False,[],"[[5, 6, 7, 4, 4], [6, 7, 8, 5, 5], [3, 6, 4, 3, 7], [5, 3, 4, 5, 6], [5, 7, 4, 6, 8]]","[[0, 2, 2, 2, 2], [2, 2, 0, 2, 2], [0, 2, 2, 0, 2], [2, 0, 2, 2, 2], [2, 2, 2, 2, 0]]","[8, 6, 2, 11, 3]",14,20,2,0.056,0.056,0.0,[],0,extreme,5,5,2418,0,168,168,1.4632811034550286e+19,attentional-mouselab,24,496013,2
mouselab,False,"[5, 5, 8, 9, 7, 20, 21, 22, 24, 8, 24, 19, 19, 0, 0, 21]","[[3, 7, 4, 4, 8], [6, 8, 8, 9, 5], [9, 5, 4, 4, 5], [3, 4, 3, 6, 4], [7, 7, 7, 5, 6]]","[[2, 0, 2, 2, 2], [2, 0, 2, 2, 2], [0, 2, 2, 2, 0], [2, 0, 2, 2, 2], [2, 2, 2, 0, 2]]","[2, 11, 6, 4, 7]",12,21,1,0.066,0.06066666666666667,0.005333333333333333,"[5, 8, 24, 19, 0, 21]",6,greedy,5,5,26653,16,197,181,9.20085702897872e+18,attentional-mouselab,25,523645,2
mouselab,False,"[4, 4, 15, 16, 17, 18, 19, 16]","[[4, 6, 5, 5, 1], [4, 2, 2, 6, 5], [4, 3, 5, 3, 6], [6, 5, 5, 3, 9], [4, 5, 4, 5, 5]]","[[2, 0, 2, 2, 2], [2, 2, 2, 2, 2], [0, 0, 2, 0, 2], [2, 2, 2, 2, 2], [2, 2, 0, 0, 2]]","[18, 2, 2, 5, 3]",24,22,1,0.053,0.050333333333333334,0.0026666666666666666,"[4, 16]",2,random,5,5,23046,8,158,150,1.532209988490549e+19,attentional-mouselab,26,548085,2
mouselab,False,"[4, 4]","[[5, 6, 4, 7, 5], [7, 5, 4, 4, 2], [7, 4, 5, 3, 5], [5, 6, 4, 5, 10], [5, 3, 6, 3, 3]]","[[2, 0, 2, 0, 2], [2, 2, 2, 2, 2], [2, 2, 2, 2, 0], [2, 2, 2, 2, 0], [2, 2, 0, 0, 2]]","[8, 4, 7, 8, 3]",10,23,4,0.057,0.05633333333333333,0.0006666666666666666,[4],1,random,5,5,4197,2,172,170,1.292552158333483e+19,attentional-mouselab,27,553585,2
mouselab,False,"[5, 10, 10]","[[7, 5, 5, 7, 4], [1, 6, 3, 2, 6], [6, 3, 6, 5, 4], [8, 6, 4, 7, 5], [1, 8, 7, 5, 4]]","[[0, 0, 2, 2, 2], [2, 2, 2, 0, 2], [2, 2, 2, 0, 0], [2, 2, 2, 2, 2], [2, 2, 2, 0, 2]]","[1, 15, 10, 2, 2]",26,24,0,0.033,0.032,0.001,[10],1,random,5,5,8995,3,100,97,1.3963410223792077e+19,attentional-mouselab,28,564847,2
mouselab,False,"[8, 8, 18, 18, 11, 16, 15, 15, 16, 16]","[[5, 7, 3, 8, 2], [5, 6, 5, 4, 5], [4, 4, 3, 7, 5], [5, 6, 5, 6, 1], [7, 4, 3, 6, 4]]","[[0, 2, 0, 0, 0], [2, 2, 2, 2, 2], [2, 2, 2, 0, 2], [2, 2, 2, 2, 0], [2, 2, 2, 2, 2]]","[9, 6, 3, 8, 4]",10,25,1,0.058,0.055,0.003,"[8, 18, 15, 16]",4,extreme,5,5,13612,9,175,166,9.716816640743131e+18,attentional-mouselab,29,579549,2
mouselab,False,"[19, 19, 24, 24, 17, 17, 8, 8]","[[6, 3, 5, 2, 5], [6, 6, 6, 5, 5], [6, 4, 4, 4, 5], [2, 7, 3, 3, 3], [8, 5, 1, 4, 3]]","[[2, 0, 2, 2, 2], [0, 2, 2, 2, 0], [2, 0, 2, 2, 2], [0, 2, 2, 0, 2], [2, 2, 2, 2, 2]]","[8, 7, 6, 4, 5]",6,26,3,0.036,0.03333333333333333,0.0026666666666666666,"[19, 24, 17, 8]",4,random,5,5,35877,8,107,99,4.883325147628269e+18,attentional-mouselab,30,616870,2
mouselab,False,"[9, 9, 4, 4]","[[2, 4, 6, 9, 8], [4, 7, 5, 3, 4], [6, 2, 5, 1, 4], [8, 7, 3, 6, 6], [7, 6, 4, 3, 2]]","[[2, 2, 0, 0, 2], [2, 2, 2, 2, 2], [2, 0, 2, 0, 2], [2, 2, 0, 2, 2], [2, 0, 2, 2, 2]]","[3, 1, 11, 10, 5]",18,27,4,0.047,0.04566666666666667,0.0013333333333333333,"[9, 4]",2,extreme,5,5,22897,4,142,138,3.1686072332868413e+18,attentional-mouselab,31,644348,2
mouselab,False,"[10, 10, 15, 15, 11, 11]","[[4, 6, 8, 7, 5], [7, 4, 5, 3, 8], [6, 2, 5, 4, 3], [4, 3, 4, 4, 5], [4, 4, 7, 5, 7]]","[[2, 2, 2, 2, 0], [2, 2, 2, 2, 2], [2, 2, 2, 0, 0], [2, 2, 2, 0, 0], [2, 2, 2, 0, 2]]","[6, 10, 4, 4, 6]",8,28,0,0.053,0.051,0.002,"[10, 15, 11]",3,random,5,5,18518,6,158,152,1.4324000934189902e+19,attentional-mouselab,32,664179,2
mouselab,False,[],"[[7, 7, 5, 3, 7], [7, 2, 7, 5, 4], [5, 4, 2, 4, 6], [5, 2, 6, 4, 7], [6, 4, 7, 6, 6]]","[[0, 2, 2, 2, 2], [2, 2, 0, 2, 0], [0, 2, 0, 2, 2], [2, 2, 2, 2, 0], [2, 2, 2, 2, 2]]","[2, 9, 5, 9, 5]",12,29,0,0.059,0.059,0.0,[],0,greedy,5,5,11022,0,177,177,5.680363038595921e+18,attentional-mouselab,33,676813,2
mouselab,False,[],"[[7, 6, 8, 5, 6], [6, 7, 3, 4, 6], [5, 6, 6, 6, 7], [4, 8, 5, 6, 2], [4, 5, 5, 8, 1]]","[[2, 2, 2, 2, 0], [0, 0, 2, 2, 2], [2, 0, 2, 2, 2], [2, 0, 2, 2, 0], [2, 2, 2, 2, 2]]","[2, 8, 8, 1, 11]",18,30,1,0.06,0.06,0.0,[],0,greedy,5,5,5526,0,179,179,8.415910818809745e+18,attentional-mouselab,34,683412,2
mouselab,False,"[20, 5, 5, 7, 7, 12, 12, 9, 9, 4, 4]","[[5, 2, 4, 5, 7], [3, 2, 5, 7, 3], [4, 5, 4, 3, 4], [6, 2, 3, 2, 3], [4, 4, 7, 7, 7]]","[[2, 2, 2, 0, 2], [2, 2, 2, 2, 2], [2, 2, 2, 0, 2], [0, 0, 0, 2, 2], [2, 2, 2, 2, 0]]","[8, 3, 8, 7, 4]",10,31,4,0.049,0.04533333333333334,0.0036666666666666666,"[5, 7, 12, 9, 4]",5,random,5,5,37905,11,146,135,1.4999603768434063e+19,attentional-mouselab,35,722591,2
mouselab,False,"[23, 23]","[[3, 5, 4, 2, 6], [7, 5, 7, 5, 6], [5, 2, 6, 8, 10], [5, 5, 5, 6, 2], [2, 2, 4, 5, 6]]","[[2, 0, 2, 2, 0], [2, 2, 2, 2, 2], [2, 2, 2, 0, 2], [2, 2, 2, 0, 2], [0, 2, 2, 2, 0]]","[6, 6, 4, 12, 2]",12,32,3,0.052,0.05133333333333333,0.0006666666666666666,[23],1,random,5,5,6091,2,156,154,9.2276786636364e+18,attentional-mouselab,36,729756,2
mouselab,True,"[17, 17, 2, 2, 1, 1]","[[7, 3, 4, 2, 7], [4, 6, 8, 6, 5], [3, 5, 6, 7, 4], [6, 5, 4, 5, 6], [6, 6, 6, 5, 4]]","[[0, 2, 2, 0, 2], [2, 0, 2, 2, 2], [2, 2, 0, 2, 2], [2, 0, 2, 2, 2], [2, 2, 0, 2, 2]]","[13, 2, 4, 6, 5]",14,1,2,0.049,0.047,0.002,"[17, 2, 1]",3,random,5,5,54720,6,146,140,1.8383488243467153e+19,attentional-mouselab,4,334951,3
mouselab,True,"[1, 1]","[[5, 6, 5, 8, 5], [6, 4, 10, 5, 2], [5, 5, 5, 2, 6], [2, 8, 5, 9, 2], [7, 5, 5, 6, 6]]","[[0, 2, 2, 2, 2], [2, 0, 2, 0, 2], [2, 0, 2, 2, 2], [0, 0, 2, 2, 2], [2, 2, 2, 2, 2]]","[16, 5, 3, 4, 2]",20,2,1,0.058,0.05733333333333333,0.0006666666666666666,[1],1,random,5,5,10462,2,173,171,1.3306836032672135e+19,attentional-mouselab,5,352355,3
mouselab,False,"[6, 6, 7, 7]","[[4, 6, 4, 8, 6], [5, 4, 7, 0, 4], [1, 6, 6, 4, 4], [5, 5, 4, 6, 4], [5, 6, 3, 6, 4]]","[[2, 0, 2, 2, 2], [2, 2, 2, 2, 0], [0, 0, 0, 2, 2], [2, 2, 0, 2, 2], [2, 2, 2, 2, 2]]","[1, 16, 2, 3, 8]",24,3,2,0.055,0.05366666666666667,0.0013333333333333333,"[6, 7]",2,random,5,5,14804,4,164,160,1.6598981920867492e+19,attentional-mouselab,7,372650,3
mouselab,False,"[23, 23]","[[4, 2, 6, 5, 7], [5, 4, 6, 6, 5], [4, 5, 6, 7, 5], [3, 5, 4, 4, 8], [6, 4, 4, 5, 2]]","[[2, 2, 2, 2, 2], [2, 2, 0, 0, 2], [0, 2, 2, 0, 2], [2, 2, 2, 2, 0], [2, 2, 0, 2, 2]]","[4, 7, 6, 6, 7]",4,4,3,0.054,0.05333333333333333,0.0006666666666666666,[23],1,greedy,5,5,18529,2,163,161,4.1969760936367155e+18,attentional-mouselab,8,393170,3
mouselab,False,"[4, 4]","[[5, 5, 6, 5, 5], [6, 4, 6, 6, 6], [6, 6, 6, 4, 7], [0, 3, 6, 5, 5], [5, 8, 6, 6, 7]]","[[2, 2, 2, 2, 2], [0, 2, 2, 2, 0], [2, 2, 2, 2, 0], [2, 2, 0, 0, 2], [2, 2, 2, 2, 0]]","[11, 4, 4, 5, 6]",10,5,4,0.058,0.05733333333333333,0.0006666666666666666,[4],1,greedy,5,5,9325,2,174,172,2.7589364284900777e+18,attentional-mouselab,9,405996,3
mouselab,False,"[2, 2, 14, 14]","[[5, 5, 3, 7, 6], [7, 10, 3, 5, 8], [5, 5, 6, 5, 5], [3, 5, 6, 8, 6], [5, 4, 5, 5, 7]]","[[2, 0, 2, 2, 0], [2, 2, 2, 2, 2], [2, 2, 2, 0, 2], [2, 2, 0, 2, 0], [2, 0, 2, 2, 2]]","[11, 5, 8, 2, 4]",14,6,4,0.062,0.06066666666666667,0.0013333333333333333,"[2, 14]",2,random,5,5,18337,4,186,182,1.149773051789711e+19,attentional-mouselab,10,426280,3
mouselab,False,"[6, 6, 17, 17]","[[6, 7, 5, 6, 6], [2, 3, 9, 3, 6], [6, 5, 4, 2, 4], [6, 5, 5, 5, 5], [5, 7, 4, 6, 1]]","[[2, 0, 2, 2, 2], [2, 2, 0, 2, 2], [2, 0, 2, 2, 2], [2, 0, 2, 2, 2], [2, 0, 0, 2, 2]]","[1, 12, 7, 8, 2]",18,7,2,0.063,0.06166666666666667,0.0013333333333333333,"[6, 17]",2,greedy,5,5,14005,4,189,185,1.5305317117221313e+19,attentional-mouselab,11,441838,3
mouselab,False,"[15, 15, 16, 16, 11, 11]","[[7, 6, 7, 5, 4], [3, 4, 4, 8, 5], [8, 3, 6, 2, 5], [5, 3, 1, 8, 5], [3, 6, 4, 5, 4]]","[[2, 0, 2, 2, 0], [2, 2, 0, 2, 2], [0, 2, 2, 2, 2], [2, 2, 2, 2, 2], [0, 2, 2, 2, 0]]","[6, 6, 8, 8, 2]",8,8,0,0.057,0.055,0.002,"[15, 16, 11]",3,random,5,5,26932,6,170,164,1.7860925603270609e+19,attentional-mouselab,12,471550,3
mouselab,False,"[15, 15]","[[7, 6, 3, 4, 5], [8, 5, 5, 4, 3], [6, 3, 3, 5, 6], [4, 1, 4, 5, 5], [6, 7, 4, 5, 6]]","[[0, 2, 2, 2, 0], [0, 2, 2, 2, 2], [0, 2, 2, 2, 2], [2, 0, 2, 2, 2], [2, 0, 2, 2, 2]]","[9, 1, 14, 5, 1]",22,9,0,0.06,0.05933333333333333,0.0006666666666666666,[15],1,extreme,5,5,21623,2,181,179,1.5406485141479457e+19,attentional-mouselab,13,495220,3
mouselab,False,"[18, 18, 16, 16]","[[6, 5, 6, 4, 6], [5, 4, 9, 9, 4], [5, 4, 5, 6, 4], [2, 7, 6, 2, 3], [4, 6, 7, 7, 5]]","[[2, 2, 0, 2, 2], [2, 2, 0, 0, 2], [2, 2, 0, 2, 2], [2, 2, 0, 2, 2], [2, 2, 0, 2, 2]]","[8, 2, 6, 10, 4]",12,10,2,0.061,0.059666666666666666,0.0013333333333333333,"[18, 16]",2,greedy,5,5,21802,4,184,180,6.357643974810993e+17,attentional-mouselab,14,518520,3
mouselab,False,"[4, 4, 2, 2]","[[3, 7, 8, 3, 5], [7, 4, 3, 4, 7], [7, 5, 6, 4, 8], [4, 6, 4, 3, 5], [8, 3, 7, 6, 8]]","[[2, 2, 2, 2, 2], [2, 2, 0, 2, 2], [2, 2, 0, 0, 0], [2, 2, 2, 2, 2], [0, 2, 2, 2, 0]]","[11, 5, 3, 7, 4]",12,11,2,0.059,0.057666666666666665,0.0013333333333333333,"[4, 2]",2,extreme,5,5,29182,4,177,173,9.672768658614673e+18,attentional-mouselab,15,549705,3
mouselab,False,"[4, 4]","[[5, 5, 7, 8, 8], [4, 3, 5, 6, 6], [3, 1, 6, 4, 4], [5, 6, 8, 4, 6], [2, 8, 4, 5, 3]]","[[2, 2, 2, 2, 2], [2, 2, 2, 0, 0], [2, 2, 2, 2, 0], [2, 0, 2, 2, 0], [2, 0, 2, 2, 2]]","[10, 2, 4, 5, 9]",14,12,4,0.055,0.05433333333333333,0.0006666666666666666,[4],1,random,5,5,7402,2,165,163,1.3911885327210973e+17,attentional-mouselab,16,559493,3
mouselab,False,"[3, 3, 15, 15, 16, 16, 19, 19]","[[6, 6, 6, 4, 5], [6, 7, 4, 4, 2], [4, 5, 5, 4, 4], [5, 5, 3, 7, 5], [5, 5, 4, 4, 8]]","[[0, 0, 2, 2, 2], [2, 2, 2, 2, 0], [2, 2, 2, 2, 2], [2, 2, 0, 0, 2], [2, 2, 2, 2, 0]]","[10, 6, 2, 11, 1]",18,13,3,0.051,0.04833333333333333,0.0026666666666666666,"[3, 15, 16, 19]",4,extreme,5,5,24930,8,153,145,2.388064299653609e+18,attentional-mouselab,17,586032,3
mouselab,False,[],"[[5, 7, 3, 8, 4], [5, 2, 3, 5, 3], [8, 6, 6, 6, 5], [2, 4, 3, 4, 5], [6, 4, 3, 7, 6]]","[[2, 0, 2, 0, 2], [2, 2, 0, 2, 2], [2, 2, 2, 0, 2], [2, 2, 2, 2, 2], [2, 0, 2, 0, 2]]","[2, 5, 2, 7, 14]",18,14,3,0.06,0.06,0.0,[],0,greedy,5,5,6750,0,179,179,1.6957602526905786e+19,attentional-mouselab,18,594379,3
mouselab,False,"[9, 9, 7, 7, 6, 6, 5, 5, 8, 8]","[[7, 6, 7, 5, 6], [6, 2, 7, 4, 4], [6, 4, 3, 4, 7], [2, 2, 5, 5, 7], [1, 4, 5, 4, 9]]","[[2, 2, 2, 2, 2], [2, 2, 2, 2, 2], [2, 2, 2, 2, 0], [0, 2, 0, 2, 0], [2, 2, 2, 0, 0]]","[8, 17, 2, 2, 1]",26,15,2,0.065,0.06166666666666667,0.0033333333333333335,"[9, 7, 6, 5, 8]",5,greedy,5,5,20205,10,196,186,1.3521414026584764e+19,attentional-mouselab,19,616261,3
mouselab,False,"[20, 20]","[[7, 4, 3, 4, 6], [2, 7, 2, 5, 7], [3, 5, 7, 5, 8], [6, 3, 5, 5, 8], [3, 6, 5, 2, 6]]","[[2, 2, 2, 2, 2], [2, 2, 2, 2, 0], [2, 2, 2, 2, 0], [0, 2, 2, 2, 0], [2, 2, 2, 0, 0]]","[2, 3, 2, 20, 3]",28,16,4,0.076,0.07533333333333334,0.0006666666666666666,[20],1,greedy,5,5,15130,2,227,225,1.5122100309095846e+19,attentional-mouselab,20,632788,3
mouselab,False,"[2, 2, 1, 1]","[[4, 8, 1, 2, 4], [5, 5, 2, 5, 4], [3, 5, 6, 5, 5], [1, 5, 9, 3, 3], [5, 5, 2, 6, 3]]","[[2, 2, 2, 2, 2], [2, 2, 2, 2, 2], [0, 0, 2, 2, 2], [2, 2, 0, 0, 0], [2, 0, 2, 2, 2]]","[13, 6, 4, 6, 1]",14,17,1,0.063,0.06166666666666667,0.0013333333333333333,"[2, 1]",2,random,5,5,12633,4,189,185,4.321635666769067e+18,attentional-mouselab,21,646951,3
mouselab,False,"[12, 12, 16, 16]","[[6, 4, 9, 7, 6], [7, 6, 1, 6, 6], [3, 6, 5, 3, 4], [5, 6, 9, 4, 6], [5, 5, 7, 7, 6]]","[[2, 2, 2, 2, 2], [2, 2, 2, 2, 2], [2, 0, 2, 0, 0], [2, 2, 2, 0, 0], [0, 2, 2, 2, 2]]","[1, 2, 15, 7, 5]",20,18,1,0.058,0.05666666666666667,0.0013333333333333333,"[12, 16]",2,random,5,5,27056,4,173,169,1.4181509857543926e+18,attentional-mouselab,22,676112,3
mouselab,False,"[16, 16, 15, 15]","[[2, 5, 5, 4, 7], [5, 9, 4, 5, 6], [3, 5, 6, 8, 4], [4, 4, 6, 2, 4], [4, 3, 5, 5, 6]]","[[0, 2, 2, 2, 2], [2, 0, 2, 0, 2], [2, 2, 2, 2, 2], [2, 2, 2, 0, 2], [0, 2, 0, 2, 2]]","[1, 11, 2, 12, 4]",22,19,1,0.058,0.05666666666666667,0.0013333333333333333,"[16, 15]",2,extreme,5,5,28766,4,174,170,1.1077895707587852e+18,attentional-mouselab,23,708107,3
mouselab,False,"[12, 12, 22, 22]","[[4, 5, 8, 4, 3], [4, 5, 4, 6, 5], [4, 4, 4, 6, 5], [7, 6, 6, 3, 5], [5, 4, 6, 8, 3]]","[[2, 2, 0, 2, 2], [0, 2, 2, 2, 2], [2, 2, 2, 2, 0], [0, 2, 0, 2, 2], [2, 2, 2, 0, 2]]","[16, 2, 5, 2, 5]",20,20,2,0.066,0.06466666666666666,0.0013333333333333333,"[12, 22]",2,greedy,5,5,10698,4,198,194,1.5887404127287941e+19,attentional-mouselab,24,720314,3
mouselab,False,"[7, 7, 6, 6]","[[1, 3, 6, 6, 5], [7, 10, 6, 3, 7], [5, 5, 6, 7, 6], [5, 7, 6, 3, 7], [5, 6, 6, 5, 6]]","[[0, 2, 2, 2, 2], [2, 2, 2, 2, 2], [2, 2, 2, 2, 0], [2, 2, 0, 2, 2], [0, 0, 0, 2, 2]]","[2, 15, 7, 2, 4]",20,21,1,0.076,0.07466666666666666,0.0013333333333333333,"[7, 6]",2,random,5,5,12623,4,229,225,1.2196281615183436e+19,attentional-mouselab,25,734725,3
mouselab,False,"[17, 17, 1, 1, 16, 16]","[[7, 4, 4, 3, 3], [6, 5, 8, 4, 4], [3, 5, 4, 5, 6], [3, 6, 5, 4, 4], [7, 7, 3, 3, 5]]","[[2, 2, 2, 0, 2], [2, 2, 0, 2, 0], [2, 2, 2, 2, 2], [0, 2, 2, 2, 2], [0, 0, 2, 2, 2]]","[8, 2, 5, 14, 1]",20,22,1,0.053,0.051,0.002,"[17, 1, 16]",3,extreme,5,5,20823,6,158,152,2.7159469577255823e+18,attentional-mouselab,26,757102,3
mouselab,False,"[8, 8]","[[4, 7, 3, 6, 9], [1, 4, 4, 6, 6], [6, 5, 9, 5, 5], [5, 4, 8, 9, 4], [3, 1, 3, 4, 4]]","[[2, 2, 2, 0, 0], [2, 2, 2, 2, 2], [2, 2, 0, 2, 2], [2, 2, 2, 0, 2], [0, 2, 0, 2, 2]]","[3, 13, 2, 4, 8]",18,23,3,0.058,0.05733333333333333,0.0006666666666666666,[8],1,greedy,5,5,13713,2,174,172,5.359585491744226e+18,attentional-mouselab,27,772436,3
mouselab,False,"[2, 2, 4, 4, 1, 1, 0, 0, 3, 3]","[[3, 4, 2, 6, 6], [7, 3, 7, 7, 4], [6, 6, 7, 3, 6], [5, 3, 3, 5, 2], [5, 7, 5, 4, 4]]","[[2, 2, 2, 2, 2], [2, 2, 2, 2, 0], [2, 2, 0, 2, 2], [0, 2, 0, 2, 2], [2, 0, 0, 2, 2]]","[13, 5, 9, 2, 1]",20,24,4,0.053,0.049666666666666665,0.0033333333333333335,"[2, 4, 1, 0, 3]",5,random,5,5,21555,10,160,150,9.355404856315711e+18,attentional-mouselab,28,795611,3
mouselab,False,"[0, 0, 1, 1, 4, 4, 2, 2]","[[5, 3, 7, 5, 4], [3, 8, 4, 8, 4], [7, 1, 3, 3, 7], [5, 3, 6, 7, 3], [4, 5, 2, 5, 3]]","[[2, 2, 2, 0, 2], [2, 2, 2, 0, 2], [2, 2, 2, 0, 2], [2, 2, 2, 2, 0], [2, 0, 2, 0, 2]]","[17, 4, 2, 5, 2]",22,25,2,0.058,0.05533333333333334,0.0026666666666666666,"[0, 1, 4, 2]",4,random,5,5,18821,8,175,167,2.748651032641617e+18,attentional-mouselab,29,822061,3
mouselab,False,"[22, 22, 21, 21, 20, 20]","[[5, 5, 8, 6, 5], [4, 2, 4, 3, 5], [6, 2, 5, 5, 5], [7, 3, 3, 4, 4], [5, 6, 5, 5, 5]]","[[2, 2, 0, 2, 2], [0, 0, 2, 2, 2], [2, 0, 2, 2, 2], [2, 2, 2, 2, 0], [2, 2, 2, 0, 2]]","[3, 3, 4, 6, 14]",16,26,1,0.044,0.041999999999999996,0.002,"[22, 21, 20]",3,extreme,5,5,25110,6,131,125,5.578899025430751e+18,attentional-mouselab,30,848802,3
mouselab,False,"[21, 21]","[[4, 6, 6, 5, 5], [7, 7, 5, 6, 2], [5, 7, 8, 7, 3], [7, 7, 4, 5, 6], [5, 7, 5, 3, 4]]","[[2, 2, 2, 2, 2], [2, 0, 2, 2, 0], [2, 0, 0, 2, 0], [2, 2, 2, 2, 2], [2, 2, 2, 2, 0]]","[1, 14, 2, 1, 12]",28,27,1,0.07,0.06933333333333334,0.0006666666666666666,[21],1,extreme,5,5,8661,2,209,207,6.726165064792319e+18,attentional-mouselab,31,859141,3
mouselab,False,"[20, 20]","[[6, 7, 6, 7, 5], [7, 2, 3, 6, 5], [10, 5, 5, 4, 6], [6, 7, 4, 3, 6], [6, 7, 6, 8, 5]]","[[0, 2, 2, 2, 0], [0, 2, 2, 2, 2], [0, 2, 2, 2, 2], [0, 2, 2, 2, 0], [2, 2, 2, 2, 2]]","[10, 2, 2, 3, 13]",22,28,0,0.063,0.06233333333333333,0.0006666666666666666,[20],1,greedy,5,5,9865,2,190,188,3.4326465952862377e+18,attentional-mouselab,32,870571,3
mouselab,False,"[20, 20, 22, 22, 24, 24]","[[6, 4, 7, 6, 3], [7, 5, 6, 5, 4], [7, 2, 3, 2, 5], [5, 4, 4, 3, 2], [6, 4, 5, 7, 6]]","[[2, 2, 2, 2, 0], [2, 2, 2, 2, 2], [2, 0, 0, 0, 2], [2, 2, 0, 2, 0], [2, 2, 2, 2, 2]]","[7, 1, 8, 1, 13]",20,29,4,0.048,0.046,0.002,"[20, 22, 24]",3,extreme,5,5,17021,6,145,139,1.308284300440885e+19,attentional-mouselab,33,889100,3
mouselab,False,"[12, 12]","[[4, 3, 10, 2, 7], [6, 5, 2, 2, 7], [6, 4, 4, 4, 2], [4, 6, 4, 7, 5], [6, 3, 5, 2, 4]]","[[2, 2, 0, 2, 2], [2, 2, 0, 2, 2], [2, 2, 2, 2, 0], [2, 2, 2, 2, 2], [2, 0, 0, 0, 2]]","[13, 2, 10, 3, 2]",22,30,2,0.065,0.06433333333333334,0.0006666666666666666,[12],1,extreme,5,5,19597,2,196,194,1.681229524985693e+19,attentional-mouselab,34,910217,3
mouselab,False,"[16, 16, 17, 17]","[[5, 8, 5, 5, 5], [4, 6, 6, 2, 6], [7, 6, 4, 5, 8], [1, 3, 8, 3, 6], [7, 8, 7, 5, 4]]","[[2, 0, 2, 2, 2], [2, 0, 2, 2, 2], [0, 2, 2, 2, 0], [2, 2, 2, 2, 2], [2, 0, 0, 2, 2]]","[1, 5, 1, 18, 5]",24,31,2,0.073,0.07166666666666666,0.0013333333333333333,"[16, 17]",2,random,5,5,16234,4,218,214,4.4998749077437297e+18,attentional-mouselab,35,927970,3
mouselab,False,"[12, 12, 2, 2]","[[4, 7, 6, 5, 1], [5, 3, 4, 6, 4], [6, 6, 5, 3, 6], [3, 6, 5, 5, 6], [4, 2, 6, 4, 5]]","[[2, 2, 2, 2, 0], [2, 2, 2, 2, 2], [2, 2, 2, 0, 2], [2, 0, 2, 2, 0], [2, 0, 0, 2, 2]]","[5, 5, 11, 3, 6]",10,32,2,0.052,0.050666666666666665,0.0013333333333333333,"[12, 2]",2,extreme,5,5,18753,4,156,152,1.0064628167123716e+19,attentional-mouselab,36,948152,3
mouselab,True,"[6, 6, 9, 9]","[[2, 6, 8, 6, 4], [4, 6, 5, 5, 5], [4, 3, 6, 3, 1], [2, 7, 6, 2, 3], [5, 5, 7, 6, 4]]","[[2, 2, 0, 2, 2], [0, 2, 0, 0, 2], [2, 0, 2, 2, 2], [2, 2, 2, 2, 2], [2, 2, 2, 2, 0]]","[6, 14, 5, 1, 4]",16,1,1,0.054,0.05266666666666667,0.0013333333333333333,"[6, 9]",2,random,5,5,10160,4,162,158,4.4446238631576904e+18,attentional-mouselab,4,206174,4
mouselab,True,"[15, 15, 18, 18, 17, 17, 16, 16, 19, 19]","[[9, 8, 4, 5, 4], [7, 1, 3, 5, 5], [8, 4, 4, 6, 4], [3, 7, 4, 2, 3], [6, 6, 7, 3, 9]]","[[0, 2, 0, 2, 0], [2, 2, 2, 2, 2], [0, 0, 2, 2, 2], [2, 2, 2, 2, 2], [0, 2, 2, 2, 2]]","[3, 6, 3, 17, 1]",22,2,1,0.056,0.05266666666666667,0.0033333333333333335,"[15, 18, 17, 16, 19]",5,random,5,5,10405,10,167,157,1.6512119593612993e+19,attentional-mouselab,5,221200,4
mouselab,False,"[5, 5, 6, 6, 7, 7]","[[4, 4, 6, 9, 2], [5, 4, 7, 6, 7], [7, 3, 2, 6, 4], [6, 7, 5, 5, 4], [3, 2, 6, 4, 3]]","[[2, 0, 2, 2, 2], [2, 2, 2, 2, 2], [2, 2, 2, 0, 0], [0, 2, 2, 2, 2], [2, 2, 2, 0, 0]]","[4, 17, 4, 3, 2]",22,3,2,0.059,0.056999999999999995,0.002,"[5, 6, 7]",3,random,5,5,5540,6,178,172,2.460015786837247e+18,attentional-mouselab,7,232418,4
mouselab,False,[],"[[5, 0, 5, 4, 7], [4, 5, 5, 6, 2], [0, 4, 7, 4, 6], [6, 6, 4, 6, 5], [4, 6, 6, 4, 4]]","[[2, 2, 2, 2, 0], [0, 2, 2, 2, 2], [2, 2, 0, 2, 2], [0, 2, 2, 2, 2], [2, 2, 0, 0, 2]]","[3, 2, 16, 5, 4]",20,4,2,0.06,0.06,0.0,[],0,random,5,5,5745,0,181,181,1.1226361494799634e+19,attentional-mouselab,8,241038,4
mouselab,False,"[5, 5]","[[5, 1, 4, 7, 4], [6, 6, 5, 8, 5], [4, 3, 5, 5, 6], [10, 6, 5, 3, 6], [6, 6, 7, 3, 3]]","[[2, 2, 2, 2, 2], [2, 2, 2, 0, 2], [2, 2, 0, 2, 0], [0, 2, 2, 0, 2], [0, 2, 2, 2, 2]]","[3, 13, 10, 2, 2]",22,5,0,0.055,0.05433333333333333,0.0006666666666666666,[5],1,greedy,5,5,5469,2,165,163,1.3556635639051776e+17,attentional-mouselab,9,247948,4
mouselab,False,"[2, 2, 1, 1]","[[4, 7, 3, 6, 9], [1, 4, 4, 6, 6], [6, 5, 9, 5, 5], [5, 4, 8, 9, 4], [3, 1, 3, 4, 4]]","[[0, 2, 2, 0, 2], [0, 0, 2, 2, 2], [2, 2, 2, 2, 2], [2, 2, 2, 2, 2], [0, 2, 0, 2, 2]]","[17, 2, 7, 3, 1]",24,6,1,0.058,0.05666666666666667,0.0013333333333333333,"[2, 1]",2,random,5,5,8115,4,175,171,5.359585491744226e+18,attentional-mouselab,10,257732,4
mouselab,False,"[24, 24, 19, 4, 4]","[[5, 4, 5, 1, 4], [4, 4, 2, 3, 5], [4, 5, 7, 6, 3], [6, 3, 2, 6, 5], [2, 7, 8, 6, 6]]","[[2, 2, 2, 0, 2], [2, 2, 0, 2, 2], [2, 2, 2, 2, 2], [2, 2, 2, 2, 2], [0, 0, 0, 0, 2]]","[1, 2, 9, 6, 12]",18,7,4,0.048,0.04633333333333334,0.0016666666666666668,"[24, 4]",2,extreme,5,5,23582,5,143,138,1.39971346326206e+17,attentional-mouselab,11,283362,4
mouselab,False,[],"[[5, 5, 8, 6, 6], [5, 5, 5, 6, 7], [8, 5, 6, 5, 5], [2, 7, 3, 5, 8], [7, 4, 2, 2, 5]]","[[2, 2, 2, 2, 2], [2, 2, 2, 2, 2], [0, 2, 0, 0, 2], [2, 2, 2, 2, 0], [2, 2, 0, 0, 2]]","[9, 7, 2, 5, 7]",10,8,0,0.052,0.052,0.0,[],0,extreme,5,5,5098,0,155,155,4.2459006787585024e+17,attentional-mouselab,12,290083,4
mouselab,False,"[22, 22, 21, 21]","[[6, 5, 7, 4, 6], [3, 6, 4, 3, 7], [10, 3, 5, 3, 5], [6, 5, 6, 4, 6], [3, 3, 4, 7, 7]]","[[2, 2, 2, 2, 2], [2, 0, 2, 2, 2], [0, 2, 0, 2, 2], [2, 2, 2, 2, 0], [0, 2, 2, 0, 2]]","[2, 6, 4, 8, 10]",12,9,3,0.047,0.04566666666666667,0.0013333333333333333,"[22, 21]",2,extreme,5,5,11257,4,140,136,4.685144615339053e+17,attentional-mouselab,13,306757,4
mouselab,False,"[20, 20, 21, 21, 22, 22, 23, 23, 24, 24, 17, 17]","[[2, 5, 6, 5, 5], [7, 3, 5, 10, 5], [7, 7, 6, 4, 4], [4, 6, 4, 6, 5], [4, 6, 6, 6, 4]]","[[2, 0, 2, 2, 0], [0, 0, 2, 2, 2], [0, 2, 2, 2, 2], [2, 2, 2, 2, 0], [2, 2, 2, 2, 2]]","[2, 2, 4, 5, 17]",22,10,2,0.056,0.052000000000000005,0.004,"[20, 21, 22, 23, 24, 17]",6,random,5,5,14027,12,168,156,6.934410383113065e+18,attentional-mouselab,14,323783,4
mouselab,False,"[17, 17]","[[5, 7, 2, 6, 4], [6, 5, 7, 8, 6], [4, 5, 6, 3, 5], [5, 3, 5, 1, 7], [6, 3, 6, 5, 4]]","[[2, 2, 2, 2, 2], [2, 2, 2, 2, 2], [2, 0, 0, 2, 2], [2, 0, 2, 2, 2], [0, 2, 0, 0, 2]]","[6, 2, 10, 11, 1]",18,11,2,0.049,0.04833333333333333,0.0006666666666666666,[17],1,random,5,5,6428,2,147,145,1.6912149255111651e+19,attentional-mouselab,15,332742,4
mouselab,False,[],"[[4, 6, 4, 3, 5], [3, 10, 7, 5, 6], [5, 2, 5, 5, 5], [2, 3, 6, 5, 1], [3, 2, 4, 3, 4]]","[[2, 0, 2, 2, 2], [2, 2, 0, 2, 2], [2, 2, 2, 0, 2], [2, 2, 0, 2, 0], [0, 2, 2, 2, 2]]","[2, 6, 3, 14, 5]",16,12,2,0.056,0.056,0.0,[],0,greedy,5,5,5155,0,169,169,1.4325485843358589e+19,attentional-mouselab,16,339652,4
mouselab,False,"[23, 23, 20, 20]","[[9, 5, 2, 7, 5], [5, 8, 5, 6, 3], [6, 6, 4, 4, 5], [4, 4, 4, 2, 5], [5, 7, 4, 5, 5]]","[[0, 2, 0, 2, 2], [2, 2, 2, 0, 2], [2, 2, 2, 2, 0], [2, 2, 2, 0, 0], [2, 2, 2, 2, 2]]","[6, 9, 2, 5, 8]",10,13,0,0.057,0.05566666666666667,0.0013333333333333333,"[23, 20]",2,extreme,5,5,13311,4,171,167,1.3850188661215287e+19,attentional-mouselab,17,354924,4
mouselab,False,"[5, 5, 7, 7]","[[8, 5, 7, 6, 2], [7, 3, 4, 3, 5], [4, 6, 7, 4, 5], [5, 4, 7, 3, 7], [5, 3, 8, 4, 3]]","[[2, 2, 2, 2, 2], [2, 2, 2, 2, 2], [2, 2, 0, 2, 2], [2, 0, 0, 0, 2], [0, 2, 0, 2, 2]]","[3, 17, 2, 1, 7]",24,14,0,0.064,0.06266666666666666,0.0013333333333333333,"[5, 7]",2,greedy,5,5,6313,4,191,187,5.021314054390426e+18,attentional-mouselab,18,363900,4
mouselab,False,"[20, 20]","[[5, 6, 4, 1, 4], [5, 4, 6, 6, 6], [4, 7, 6, 4, 2], [7, 5, 6, 6, 7], [5, 8, 4, 4, 4]]","[[2, 2, 2, 0, 0], [2, 2, 2, 2, 2], [2, 0, 2, 2, 2], [0, 2, 2, 2, 2], [2, 0, 2, 2, 0]]","[3, 6, 5, 1, 15]",18,15,1,0.067,0.06633333333333334,0.0006666666666666666,[20],1,greedy,5,5,5611,2,202,200,1.1737745897215027e+19,attentional-mouselab,19,370378,4
mouselab,False,[],"[[7, 7, 7, 4, 5], [6, 6, 4, 4, 3], [7, 5, 2, 6, 7], [4, 2, 2, 2, 5], [10, 6, 4, 7, 8]]","[[2, 2, 2, 0, 2], [2, 2, 2, 2, 2], [2, 2, 0, 2, 2], [2, 0, 2, 2, 2], [0, 2, 2, 0, 0]]","[9, 3, 2, 4, 12]",18,16,0,0.077,0.077,0.0,[],0,extreme,5,5,3329,0,231,231,2.875342514052187e+18,attentional-mouselab,20,376440,4
mouselab,False,"[5, 5, 7, 7, 8, 8, 9, 9, 2, 2, 0, 0, 3, 3]","[[6, 6, 5, 6, 5], [5, 5, 5, 5, 3], [7, 8, 6, 4, 6], [3, 3, 8, 7, 4], [6, 3, 8, 6, 5]]","[[2, 0, 2, 2, 2], [2, 0, 2, 2, 2], [2, 0, 2, 0, 2], [2, 0, 2, 2, 2], [0, 2, 2, 2, 2]]","[4, 21, 2, 2, 1]",30,17,0,0.052,0.04733333333333333,0.004666666666666667,"[5, 7, 8, 9, 2, 0, 3]",7,random,5,5,18749,14,155,141,1.6647858370430474e+19,attentional-mouselab,21,396544,4
mouselab,False,[],"[[7, 6, 5, 5, 5], [7, 7, 4, 6, 5], [9, 7, 7, 3, 3], [8, 7, 4, 3, 5], [6, 4, 8, 3, 2]]","[[2, 2, 2, 0, 2], [0, 0, 2, 2, 2], [2, 2, 2, 0, 2], [2, 0, 2, 2, 2], [2, 2, 0, 2, 2]]","[2, 7, 2, 12, 7]",16,18,1,0.062,0.062,0.0,[],0,random,5,5,7581,0,187,187,9.403867711805639e+18,attentional-mouselab,22,405244,4
mouselab,False,[],"[[10, 10, 5, 5, 8], [5, 3, 5, 4, 4], [6, 7, 5, 7, 7], [3, 4, 6, 6, 6], [4, 6, 3, 5, 4]]","[[2, 0, 2, 2, 2], [2, 2, 2, 2, 2], [2, 2, 0, 2, 0], [2, 2, 0, 2, 0], [2, 2, 0, 2, 2]]","[8, 6, 7, 6, 3]",6,19,1,0.063,0.063,0.0,[],0,greedy,5,5,3101,0,189,189,1.5850636225755781e+19,attentional-mouselab,23,410092,4
mouselab,False,"[15, 15, 16, 16, 17, 17]","[[7, 7, 5, 6, 3], [5, 7, 6, 5, 2], [4, 5, 4, 2, 5], [4, 4, 8, 1, 4], [4, 4, 3, 5, 5]]","[[0, 2, 2, 2, 0], [2, 2, 2, 2, 2], [2, 2, 2, 2, 0], [2, 2, 2, 0, 0], [2, 2, 2, 2, 0]]","[1, 4, 3, 12, 10]",20,20,2,0.056,0.054,0.002,"[15, 16, 17]",3,random,5,5,7123,6,167,161,5.950606499305605e+18,attentional-mouselab,24,418980,4
mouselab,False,[],"[[5, 5, 5, 5, 4], [8, 5, 7, 8, 7], [4, 2, 4, 0, 8], [6, 5, 4, 2, 4], [5, 6, 6, 5, 4]]","[[2, 2, 0, 2, 2], [0, 2, 2, 2, 0], [2, 2, 2, 2, 0], [0, 2, 2, 2, 0], [2, 2, 2, 2, 2]]","[8, 3, 3, 12, 4]",16,21,0,0.056,0.056,0.0,[],0,greedy,5,5,5903,0,168,168,1.569972312075569e+19,attentional-mouselab,25,425922,4
mouselab,False,"[21, 21, 20, 20, 23, 23, 24, 24]","[[6, 4, 6, 7, 4], [3, 7, 6, 4, 5], [8, 4, 7, 6, 4], [3, 4, 3, 6, 6], [5, 4, 6, 5, 3]]","[[2, 2, 0, 0, 2], [2, 0, 2, 2, 2], [2, 2, 0, 2, 2], [2, 2, 0, 2, 2], [2, 2, 0, 2, 2]]","[4, 2, 5, 4, 15]",18,22,2,0.058,0.05533333333333334,0.0026666666666666666,"[21, 20, 23, 24]",4,greedy,5,5,13113,8,173,165,4.805652450650476e+17,attentional-mouselab,26,440642,4
mouselab,False,"[10, 10, 12, 12, 13, 13, 14, 14]","[[2, 3, 1, 7, 8], [4, 5, 7, 4, 6], [4, 4, 6, 2, 3], [6, 6, 3, 6, 5], [6, 6, 4, 6, 7]]","[[2, 2, 0, 2, 0], [2, 2, 0, 2, 2], [2, 0, 2, 2, 2], [2, 2, 2, 0, 2], [2, 2, 0, 2, 2]]","[4, 5, 14, 6, 1]",16,23,1,0.045,0.042333333333333334,0.0026666666666666666,"[10, 12, 13, 14]",4,random,5,5,7965,8,135,127,6.983569758719454e+18,attentional-mouselab,27,453488,4
mouselab,False,"[7, 7]","[[4, 2, 8, 6, 7], [5, 7, 7, 5, 7], [7, 2, 4, 7, 7], [5, 6, 7, 5, 4], [1, 6, 4, 7, 5]]","[[2, 2, 0, 2, 2], [2, 2, 2, 2, 2], [2, 0, 0, 2, 2], [2, 2, 0, 2, 2], [0, 0, 2, 2, 2]]","[3, 16, 5, 4, 2]",20,24,2,0.064,0.06333333333333334,0.0006666666666666666,[7],1,extreme,5,5,5248,2,192,190,1.2395817909876519e+19,attentional-mouselab,28,460406,4
mouselab,False,[],"[[6, 5, 6, 6, 6], [4, 6, 8, 7, 6], [4, 4, 5, 6, 4], [3, 4, 6, 4, 4], [5, 3, 6, 3, 5]]","[[2, 2, 2, 2, 2], [0, 2, 0, 0, 2], [2, 2, 2, 2, 2], [2, 2, 2, 2, 0], [2, 0, 2, 0, 2]]","[1, 11, 7, 7, 4]",14,25,2,0.065,0.065,0.0,[],0,extreme,5,5,30829,0,195,195,6.559639266230566e+18,attentional-mouselab,29,494880,4
mouselab,False,[],"[[7, 9, 8, 5, 0], [5, 5, 5, 9, 5], [7, 5, 5, 5, 6], [6, 7, 3, 4, 4], [2, 5, 4, 3, 5]]","[[2, 0, 0, 2, 0], [2, 2, 2, 0, 2], [2, 2, 2, 2, 2], [0, 2, 2, 2, 0], [2, 2, 2, 2, 2]]","[9, 8, 3, 8, 2]",14,26,1,0.067,0.067,0.0,[],0,extreme,5,5,8833,0,202,202,1.1476086820147474e+19,attentional-mouselab,30,506068,4
mouselab,False,"[20, 20, 21, 21, 22, 22, 23, 23]","[[6, 4, 5, 3, 7], [6, 6, 5, 8, 4], [4, 6, 7, 4, 9], [9, 8, 6, 4, 5], [4, 5, 6, 6, 6]]","[[0, 2, 2, 2, 0], [2, 2, 2, 0, 2], [2, 2, 2, 2, 0], [0, 2, 2, 2, 0], [2, 2, 2, 2, 2]]","[7, 3, 2, 3, 15]",20,27,3,0.052,0.04933333333333333,0.0026666666666666666,"[20, 21, 22, 23]",4,greedy,5,5,19668,8,155,147,7.36837915444891e+18,attentional-mouselab,31,527721,4
mouselab,False,[],"[[7, 4, 5, 6, 6], [6, 3, 5, 6, 7], [4, 4, 6, 7, 2], [5, 3, 4, 8, 3], [2, 6, 4, 2, 6]]","[[2, 2, 2, 2, 0], [0, 2, 2, 0, 2], [2, 2, 0, 2, 2], [2, 2, 0, 2, 2], [2, 2, 2, 0, 2]]","[7, 8, 3, 7, 5]",8,28,0,0.051,0.051,0.0,[],0,random,5,5,27813,0,154,154,9.693819998023113e+18,attentional-mouselab,32,557259,4
mouselab,False,"[5, 5]","[[3, 3, 5, 3, 8], [6, 6, 8, 8, 8], [9, 3, 3, 7, 4], [4, 5, 7, 6, 4], [10, 9, 4, 6, 5]]","[[0, 2, 2, 2, 2], [2, 0, 2, 2, 2], [0, 2, 2, 2, 2], [2, 2, 2, 2, 0], [0, 0, 2, 2, 2]]","[4, 17, 4, 2, 3]",22,29,0,0.063,0.06233333333333333,0.0006666666666666666,[5],1,extreme,5,5,4361,2,188,186,1.3275982503094127e+19,attentional-mouselab,33,562855,4
mouselab,False,[],"[[6, 5, 6, 5, 4], [3, 4, 5, 5, 7], [7, 5, 5, 3, 5], [4, 3, 4, 5, 7], [4, 2, 4, 3, 3]]","[[2, 2, 2, 2, 2], [2, 0, 2, 2, 0], [0, 2, 2, 0, 2], [2, 2, 2, 2, 0], [2, 2, 0, 2, 2]]","[4, 13, 8, 4, 1]",18,30,4,0.059,0.059,0.0,[],0,greedy,5,5,38952,0,178,178,9.157933464947417e+18,attentional-mouselab,34,603350,4
mouselab,False,"[6, 6]","[[4, 6, 4, 9, 6], [4, 5, 4, 3, 8], [5, 7, 6, 3, 3], [4, 6, 4, 4, 6], [4, 5, 2, 7, 3]]","[[2, 2, 2, 2, 2], [2, 2, 0, 2, 2], [2, 0, 2, 2, 2], [2, 0, 0, 2, 2], [2, 0, 2, 0, 2]]","[1, 17, 5, 4, 3]",22,31,1,0.055,0.05433333333333333,0.0006666666666666666,[6],1,greedy,5,5,3149,2,165,163,1.3486072813456753e+19,attentional-mouselab,35,607664,4
mouselab,False,"[16, 16]","[[7, 4, 3, 5, 4], [5, 3, 6, 3, 1], [4, 5, 7, 4, 6], [4, 5, 5, 1, 5], [5, 7, 5, 5, 9]]","[[2, 2, 2, 2, 2], [2, 0, 2, 2, 0], [2, 2, 2, 2, 0], [2, 2, 0, 0, 2], [2, 2, 2, 2, 0]]","[7, 8, 2, 12, 1]",18,32,2,0.049,0.04833333333333333,0.0006666666666666666,[16],1,extreme,5,5,4281,2,148,146,7.529471781752136e+17,attentional-mouselab,36,613442,4
mouselab,True,"[20, 20, 21, 21, 22, 22, 23, 23]","[[6, 5, 7, 6, 2], [4, 5, 4, 5, 3], [4, 3, 5, 7, 5], [7, 4, 4, 3, 4], [4, 7, 5, 2, 7]]","[[2, 2, 0, 0, 0], [2, 2, 2, 2, 2], [0, 0, 2, 2, 2], [2, 2, 2, 2, 2], [2, 2, 2, 2, 0]]","[5, 7, 2, 1, 15]",20,1,1,0.058,0.05533333333333334,0.0026666666666666666,"[20, 21, 22, 23]",4,random,5,5,17959,8,175,167,5.181179709557144e+18,attentional-mouselab,4,191598,5
mouselab,True,[],"[[5, 3, 4, 6, 6], [3, 8, 4, 5, 5], [4, 7, 5, 7, 7], [5, 4, 5, 4, 9], [5, 7, 6, 6, 5]]","[[2, 2, 2, 2, 2], [2, 2, 2, 2, 2], [2, 2, 2, 0, 2], [2, 2, 0, 2, 0], [2, 0, 2, 0, 0]]","[1, 2, 5, 17, 5]",22,2,4,0.076,0.076,0.0,[],0,random,5,5,11439,0,229,229,1.487187888482985e+19,attentional-mouselab,5,204709,5
mouselab,False,"[19, 19, 17, 17, 12, 12, 16, 16, 11, 11, 15, 15, 10, 10]","[[10, 6, 2, 6, 4], [5, 6, 4, 5, 4], [6, 6, 4, 6, 8], [5, 7, 5, 3, 5], [4, 4, 3, 6, 5]]","[[2, 2, 0, 2, 2], [2, 2, 2, 0, 2], [2, 2, 2, 2, 0], [2, 2, 2, 0, 2], [2, 2, 0, 2, 0]]","[1, 6, 8, 8, 7]",10,3,4,0.056,0.051333333333333335,0.004666666666666667,"[19, 17, 12, 16, 11, 15, 10]",7,random,5,5,29471,14,167,153,5.042804856389504e+18,attentional-mouselab,7,240950,5
mouselab,False,"[11, 11, 12, 12, 13, 13, 14, 14]","[[4, 5, 6, 8, 8], [7, 7, 8, 5, 5], [2, 6, 5, 3, 5], [8, 2, 7, 4, 8], [5, 7, 2, 4, 5]]","[[2, 2, 0, 2, 0], [2, 2, 2, 2, 2], [0, 2, 2, 2, 2], [0, 0, 2, 2, 2], [2, 2, 2, 0, 2]]","[4, 2, 13, 3, 8]",18,4,1,0.058,0.05533333333333334,0.0026666666666666666,"[11, 12, 13, 14]",4,extreme,5,5,13207,8,174,166,1.3168979905861591e+19,attentional-mouselab,8,255918,5
mouselab,False,"[7, 7]","[[6, 4, 7, 5, 3], [3, 4, 6, 4, 4], [8, 4, 9, 4, 2], [5, 7, 5, 5, 6], [7, 4, 2, 4, 4]]","[[0, 0, 2, 2, 2], [2, 2, 2, 2, 2], [2, 2, 0, 2, 2], [2, 0, 2, 2, 2], [2, 2, 0, 2, 0]]","[7, 10, 9, 3, 1]",16,5,2,0.069,0.06833333333333334,0.0006666666666666666,[7],1,random,5,5,9552,2,207,205,4.687381671737644e+18,attentional-mouselab,9,266630,5
mouselab,False,"[21, 21, 22, 22, 23, 23, 24, 24, 16, 16, 15, 15, 19, 19]","[[5, 5, 3, 6, 5], [5, 6, 4, 5, 6], [4, 6, 6, 7, 5], [5, 4, 5, 3, 5], [4, 6, 3, 3, 4]]","[[2, 2, 2, 0, 2], [2, 2, 2, 0, 2], [2, 2, 0, 0, 0], [2, 2, 2, 2, 2], [0, 2, 2, 2, 2]]","[5, 6, 2, 8, 9]",10,6,1,0.053,0.04833333333333333,0.004666666666666667,"[21, 22, 23, 24, 16, 15, 19]",7,random,5,5,27647,14,159,145,7.254012641397054e+18,attentional-mouselab,10,295478,5
mouselab,False,"[10, 10, 12, 12, 13, 13, 0, 0, 1, 1, 3, 3, 4, 4]","[[6, 3, 6, 2, 2], [4, 3, 7, 3, 4], [5, 7, 4, 3, 2], [3, 7, 6, 7, 6], [5, 6, 5, 5, 0]]","[[2, 2, 0, 2, 2], [2, 2, 0, 2, 2], [2, 0, 2, 2, 0], [2, 0, 0, 2, 2], [2, 2, 2, 2, 2]]","[11, 3, 11, 2, 3]",20,7,0,0.051,0.04633333333333333,0.004666666666666667,"[10, 12, 13, 0, 1, 3, 4]",7,greedy,5,5,23176,14,154,140,1.7310546486334464e+19,attentional-mouselab,11,321806,5
mouselab,False,"[1, 1, 3, 3, 4, 4]","[[5, 5, 7, 6, 3], [1, 5, 5, 9, 3], [7, 8, 7, 6, 2], [2, 5, 4, 3, 6], [7, 4, 5, 3, 8]]","[[0, 2, 0, 2, 2], [2, 2, 2, 2, 0], [2, 2, 2, 2, 2], [2, 2, 2, 2, 2], [0, 2, 2, 0, 0]]","[10, 2, 7, 6, 5]",10,8,2,0.059,0.056999999999999995,0.002,"[1, 3, 4]",3,random,5,5,8847,6,178,172,3.648136165508381e+18,attentional-mouselab,12,331662,5
mouselab,False,"[20, 20, 21, 21, 22, 22, 23, 23, 24, 24]","[[5, 5, 6, 6, 6], [5, 9, 6, 6, 4], [5, 8, 5, 7, 6], [2, 6, 7, 3, 4], [2, 5, 4, 5, 7]]","[[0, 2, 2, 0, 2], [2, 2, 2, 0, 2], [2, 0, 2, 2, 2], [0, 0, 2, 2, 2], [2, 2, 2, 2, 2]]","[1, 4, 2, 5, 18]",24,9,4,0.06,0.056666666666666664,0.0033333333333333335,"[20, 21, 22, 23, 24]",5,random,5,5,12136,10,180,170,1.0396072420401291e+19,attentional-mouselab,13,347333,5
mouselab,False,"[6, 6, 7, 7, 1, 1, 3, 3]","[[5, 4, 3, 5, 5], [7, 7, 5, 7, 5], [4, 10, 5, 6, 8], [3, 5, 7, 7, 7], [6, 5, 4, 5, 5]]","[[0, 2, 2, 2, 2], [0, 2, 2, 0, 0], [2, 0, 2, 2, 0], [2, 2, 2, 2, 2], [2, 2, 2, 2, 2]]","[8, 14, 3, 3, 2]",20,10,3,0.062,0.059333333333333335,0.0026666666666666666,"[6, 7, 1, 3]",4,extreme,5,5,21503,8,187,179,1.1453255535483544e+19,attentional-mouselab,14,370150,5
mouselab,False,"[5, 5, 7, 7, 9, 9, 17, 17]","[[5, 4, 2, 5, 8], [5, 4, 5, 2, 3], [5, 4, 7, 4, 5], [6, 6, 5, 3, 7], [5, 3, 5, 7, 5]]","[[0, 2, 2, 2, 2], [2, 0, 2, 0, 2], [2, 2, 2, 0, 2], [0, 2, 2, 2, 2], [2, 2, 2, 0, 2]]","[1, 14, 2, 11, 2]",26,11,0,0.054,0.051333333333333335,0.0026666666666666666,"[5, 7, 9, 17]",4,random,5,5,11271,8,161,153,1.0882416973707608e+19,attentional-mouselab,15,382462,5
mouselab,False,"[22, 22, 23, 23, 24, 24, 20, 20, 12, 12]","[[8, 5, 7, 9, 6], [5, 3, 5, 5, 8], [2, 9, 5, 3, 5], [4, 3, 6, 4, 4], [6, 6, 5, 4, 1]]","[[2, 2, 0, 2, 2], [2, 2, 2, 2, 2], [0, 2, 2, 2, 2], [0, 2, 0, 2, 0], [2, 0, 2, 2, 2]]","[5, 3, 9, 3, 10]",14,12,2,0.054,0.050666666666666665,0.0033333333333333335,"[22, 23, 24, 20, 12]",5,greedy,5,5,16406,10,163,153,1.0128368857431386e+19,attentional-mouselab,16,400158,5
mouselab,False,"[10, 10]","[[6, 5, 7, 4, 6], [3, 6, 4, 3, 7], [10, 3, 5, 3, 5], [6, 5, 6, 4, 6], [3, 3, 4, 7, 7]]","[[2, 2, 2, 2, 2], [2, 0, 2, 2, 0], [2, 2, 0, 2, 2], [0, 2, 2, 2, 0], [2, 2, 2, 2, 0]]","[3, 6, 12, 2, 7]",14,13,0,0.063,0.06233333333333333,0.0006666666666666666,[10],1,greedy,5,5,6936,2,189,187,4.685144615339053e+17,attentional-mouselab,17,408614,5
mouselab,False,"[15, 15, 17, 17, 18, 18, 19, 19]","[[6, 7, 5, 6, 6], [2, 3, 9, 3, 6], [6, 5, 4, 2, 4], [6, 5, 5, 5, 5], [5, 7, 4, 6, 1]]","[[2, 0, 2, 2, 2], [2, 2, 0, 2, 2], [2, 0, 2, 2, 2], [2, 0, 2, 2, 2], [2, 0, 0, 2, 2]]","[4, 3, 7, 12, 4]",14,14,0,0.055,0.052333333333333336,0.0026666666666666666,"[15, 17, 18, 19]",4,greedy,5,5,10496,8,164,156,1.5305317117221313e+19,attentional-mouselab,18,419886,5
mouselab,False,"[20, 20, 22, 22]","[[3, 6, 6, 5, 6], [5, 5, 4, 3, 6], [4, 3, 6, 6, 6], [4, 5, 7, 4, 5], [8, 8, 4, 6, 6]]","[[2, 2, 2, 2, 2], [2, 2, 2, 0, 2], [0, 0, 2, 2, 2], [2, 0, 0, 2, 0], [2, 2, 2, 2, 2]]","[2, 3, 8, 8, 9]",14,15,0,0.052,0.050666666666666665,0.0013333333333333333,"[20, 22]",2,random,5,5,10896,4,157,153,3.0746914550832804e+18,attentional-mouselab,19,432646,5
mouselab,False,"[10, 10, 14, 14, 13, 13]","[[6, 10, 7, 7, 2], [4, 8, 7, 5, 7], [4, 5, 5, 7, 4], [3, 4, 4, 0, 5], [3, 5, 7, 5, 5]]","[[2, 2, 2, 2, 0], [0, 2, 2, 2, 2], [2, 0, 0, 2, 2], [0, 2, 2, 2, 2], [2, 2, 0, 2, 2]]","[1, 1, 22, 5, 1]",32,16,3,0.057,0.055,0.002,"[10, 14, 13]",3,random,5,5,6496,6,171,165,8.622274945224184e+18,attentional-mouselab,20,441166,5
mouselab,False,"[10, 10, 13, 13, 14, 14]","[[4, 5, 4, 4, 6], [5, 5, 5, 6, 2], [3, 7, 3, 4, 4], [7, 2, 6, 7, 4], [4, 3, 5, 6, 6]]","[[2, 2, 0, 2, 2], [2, 0, 2, 2, 2], [2, 0, 0, 2, 2], [2, 2, 2, 0, 0], [2, 2, 2, 2, 2]]","[4, 2, 12, 3, 9]",18,17,1,0.049,0.047,0.002,"[10, 13, 14]",3,random,5,5,7622,6,147,141,1.1613195393369741e+19,attentional-mouselab,21,449718,5
mouselab,False,[],"[[5, 5, 7, 8, 8], [4, 3, 5, 6, 6], [3, 1, 6, 4, 4], [5, 6, 8, 4, 6], [2, 8, 4, 5, 3]]","[[2, 2, 0, 2, 2], [2, 2, 2, 0, 2], [2, 2, 0, 2, 0], [2, 2, 0, 2, 0], [2, 2, 2, 2, 2]]","[2, 4, 11, 11, 2]",20,18,2,0.065,0.065,0.0,[],0,greedy,5,5,8352,0,196,196,1.3911885327210973e+17,attentional-mouselab,22,459086,5
mouselab,False,"[1, 1, 20, 20, 22, 22, 24, 24, 2, 2, 3, 3, 4, 4]","[[4, 3, 6, 6, 4], [8, 7, 4, 5, 3], [5, 1, 6, 4, 7], [6, 5, 4, 3, 6], [3, 8, 6, 6, 6]]","[[2, 2, 2, 2, 2], [0, 2, 2, 2, 0], [2, 0, 2, 2, 2], [2, 2, 0, 2, 2], [2, 0, 2, 0, 2]]","[10, 3, 3, 3, 11]",18,19,2,0.056,0.051333333333333335,0.004666666666666667,"[1, 20, 22, 24, 2, 3, 4]",7,extreme,5,5,25287,14,168,154,5.992678152867066e+18,attentional-mouselab,23,485526,5
mouselab,False,"[15, 15, 18, 18]","[[2, 6, 8, 4, 9], [3, 5, 4, 6, 5], [6, 5, 3, 6, 7], [5, 7, 7, 7, 3], [4, 6, 7, 5, 4]]","[[2, 2, 2, 2, 0], [2, 2, 2, 0, 2], [2, 2, 2, 2, 2], [2, 0, 0, 2, 0], [2, 2, 0, 2, 2]]","[4, 3, 7, 14, 2]",18,20,3,0.061,0.059666666666666666,0.0013333333333333333,"[15, 18]",2,greedy,5,5,9527,4,184,180,8.252874993877257e+18,attentional-mouselab,24,495966,5
mouselab,False,[],"[[4, 3, 6, 5, 8], [5, 4, 4, 3, 5], [7, 4, 4, 7, 7], [6, 0, 4, 6, 6], [6, 5, 2, 5, 5]]","[[2, 2, 2, 2, 0], [0, 2, 2, 2, 2], [2, 2, 2, 0, 2], [2, 0, 2, 0, 2], [2, 2, 0, 2, 2]]","[7, 2, 8, 8, 5]",10,21,3,0.057,0.057,0.0,[],0,extreme,5,5,6343,0,170,170,2.3018431963131528e+18,attentional-mouselab,25,504086,5
mouselab,False,"[1, 1, 2, 2]","[[3, 6, 7, 7, 5], [1, 8, 8, 4, 2], [7, 5, 2, 6, 3], [5, 6, 5, 6, 6], [7, 7, 6, 4, 8]]","[[2, 2, 2, 2, 2], [0, 0, 0, 0, 0], [2, 2, 2, 2, 2], [2, 2, 2, 2, 2], [2, 0, 2, 2, 2]]","[8, 10, 7, 3, 2]",14,22,2,0.059,0.057666666666666665,0.0013333333333333333,"[1, 2]",2,extreme,5,5,9831,4,177,173,1.034885344913678e+19,attentional-mouselab,26,515118,5
mouselab,False,"[21, 21]","[[6, 4, 3, 3, 4], [8, 4, 4, 5, 5], [6, 5, 4, 4, 5], [5, 7, 6, 7, 6], [5, 6, 3, 7, 5]]","[[2, 0, 2, 2, 2], [0, 2, 2, 2, 2], [2, 2, 2, 0, 2], [2, 0, 0, 2, 2], [2, 2, 0, 2, 2]]","[6, 6, 2, 8, 8]",8,23,1,0.054,0.05333333333333333,0.0006666666666666666,[21],1,extreme,5,5,8408,2,162,160,5.140917807019779e+18,attentional-mouselab,27,524726,5
mouselab,False,"[6, 6, 7, 7, 8, 8, 11, 11, 21, 21, 12, 12, 22, 22]","[[5, 5, 4, 7, 4], [4, 5, 5, 4, 2], [4, 5, 3, 6, 6], [4, 2, 7, 6, 8], [5, 2, 3, 6, 2]]","[[2, 2, 2, 0, 2], [0, 2, 2, 2, 0], [2, 2, 2, 0, 2], [2, 2, 2, 0, 2], [2, 2, 2, 0, 2]]","[4, 9, 7, 3, 7]",10,24,3,0.055,0.050333333333333334,0.004666666666666667,"[6, 7, 8, 11, 21, 12, 22]",7,greedy,5,5,20688,14,166,152,8.095123849467758e+18,attentional-mouselab,28,546502,5
mouselab,False,"[3, 3, 2, 2, 1, 1, 0, 0]","[[5, 2, 4, 4, 8], [8, 3, 5, 6, 4], [5, 8, 6, 7, 5], [5, 5, 6, 4, 9], [4, 5, 5, 6, 7]]","[[2, 2, 2, 2, 0], [2, 2, 2, 2, 2], [2, 2, 2, 2, 0], [0, 2, 2, 0, 0], [2, 2, 2, 2, 0]]","[16, 4, 2, 2, 6]",20,25,4,0.071,0.06833333333333333,0.0026666666666666666,"[3, 2, 1, 0]",4,greedy,5,5,17135,8,214,206,1.7933418047360312e+18,attentional-mouselab,29,564557,5
mouselab,False,"[18, 18]","[[4, 3, 1, 6, 8], [4, 4, 5, 3, 3], [7, 4, 3, 8, 7], [5, 3, 2, 5, 4], [3, 6, 7, 7, 6]]","[[2, 2, 0, 2, 0], [2, 2, 2, 2, 2], [2, 2, 0, 0, 2], [2, 2, 0, 2, 2], [2, 2, 0, 2, 2]]","[2, 5, 11, 10, 2]",18,26,3,0.06,0.05933333333333333,0.0006666666666666666,[18],1,extreme,5,5,9376,2,179,177,3.051830873882449e+18,attentional-mouselab,30,574958,5
mouselab,False,"[0, 0, 1, 1, 3, 3]","[[5, 5, 5, 6, 5], [6, 4, 7, 7, 7], [6, 2, 3, 5, 7], [4, 5, 5, 6, 6], [3, 6, 5, 5, 3]]","[[2, 2, 0, 2, 0], [2, 2, 0, 2, 2], [2, 0, 0, 2, 0], [2, 2, 2, 2, 2], [2, 2, 2, 2, 2]]","[13, 6, 4, 3, 4]",14,27,3,0.059,0.056999999999999995,0.002,"[0, 1, 3]",3,extreme,5,5,11254,6,178,172,1.207740341736622e+19,attentional-mouselab,31,587374,5
mouselab,False,"[8, 8, 9, 9]","[[5, 7, 2, 8, 6], [3, 4, 6, 3, 5], [5, 6, 5, 5, 7], [5, 3, 6, 5, 0], [6, 3, 5, 6, 6]]","[[2, 2, 0, 0, 2], [0, 0, 0, 2, 2], [2, 2, 2, 2, 2], [2, 2, 2, 2, 0], [2, 2, 2, 2, 2]]","[9, 11, 2, 2, 6]",16,28,3,0.054,0.05266666666666667,0.0013333333333333333,"[8, 9]",2,greedy,5,5,29816,4,161,157,1.3771739248250974e+19,attentional-mouselab,32,618590,5
mouselab,False,"[12, 12, 10, 10, 13, 13, 14, 14, 4, 4]","[[9, 1, 8, 3, 5], [5, 7, 4, 7, 5], [4, 6, 6, 5, 7], [5, 6, 7, 5, 5], [6, 8, 7, 2, 4]]","[[0, 0, 0, 2, 2], [2, 2, 2, 2, 2], [2, 0, 2, 2, 2], [2, 2, 2, 2, 2], [2, 0, 2, 0, 2]]","[7, 1, 13, 5, 4]",16,29,2,0.067,0.06366666666666668,0.0033333333333333335,"[12, 10, 13, 14, 4]",5,extreme,5,5,17943,10,201,191,1.0728131733677605e+19,attentional-mouselab,33,637549,5
mouselab,False,"[0, 0, 1, 1, 2, 2, 4, 4, 19, 19]","[[4, 6, 6, 5, 7], [9, 6, 4, 6, 4], [4, 7, 3, 8, 2], [5, 7, 6, 4, 4], [2, 8, 7, 5, 7]]","[[2, 2, 2, 0, 2], [2, 2, 2, 2, 0], [2, 0, 2, 2, 2], [2, 0, 2, 2, 2], [2, 0, 2, 2, 0]]","[14, 3, 2, 8, 3]",20,30,1,0.065,0.06166666666666667,0.0033333333333333335,"[0, 1, 2, 4, 19]",5,greedy,5,5,14960,10,196,186,1.1087010664365187e+19,attentional-mouselab,34,654486,5
mouselab,False,"[5, 5, 7, 7, 8, 8, 23, 23]","[[4, 5, 5, 3, 6], [4, 5, 5, 7, 4], [2, 5, 4, 4, 5], [7, 3, 4, 4, 3], [3, 6, 4, 7, 3]]","[[0, 2, 0, 2, 2], [2, 0, 2, 2, 2], [2, 2, 2, 0, 2], [2, 2, 2, 0, 0], [2, 2, 2, 2, 2]]","[2, 9, 7, 4, 8]",12,31,3,0.056,0.05333333333333334,0.0026666666666666666,"[5, 7, 8, 23]",4,random,5,5,12254,8,169,161,1.5981468840068504e+19,attentional-mouselab,35,667982,5
mouselab,False,"[11, 11, 12, 12, 14, 14, 23, 23]","[[7, 8, 6, 5, 9], [5, 4, 3, 6, 0], [0, 4, 4, 8, 4], [6, 6, 6, 7, 7], [1, 4, 7, 4, 7]]","[[2, 2, 0, 2, 2], [2, 2, 2, 2, 0], [0, 2, 2, 0, 2], [2, 2, 2, 2, 2], [0, 0, 2, 2, 2]]","[3, 3, 13, 1, 10]",22,32,3,0.061,0.058333333333333334,0.0026666666666666666,"[11, 12, 14, 23]",4,extreme,5,5,8248,8,184,176,5.630293064899067e+18,attentional-mouselab,36,677230,5
mouselab,True,[],"[[6, 6, 6, 7, 0], [5, 6, 5, 7, 7], [4, 7, 5, 4, 3], [4, 5, 2, 4, 5], [4, 4, 3, 5, 6]]","[[2, 2, 0, 0, 2], [2, 2, 2, 0, 2], [2, 2, 2, 2, 2], [0, 2, 2, 2, 2], [2, 0, 2, 0, 2]]","[6, 11, 7, 5, 1]",12,1,3,0.057,0.057,0.0,[],0,random,5,5,20774,0,172,172,6.476383470502399e+18,attentional-mouselab,4,286781,6
mouselab,True,"[8, 8]","[[7, 4, 6, 6, 6], [6, 5, 2, 7, 5], [4, 4, 8, 4, 7], [6, 4, 5, 4, 3], [6, 5, 8, 6, 6]]","[[2, 2, 2, 0, 0], [0, 2, 2, 2, 2], [2, 2, 2, 2, 2], [2, 2, 2, 0, 2], [0, 2, 2, 2, 0]]","[9, 8, 6, 3, 4]",10,2,3,0.057,0.05633333333333333,0.0006666666666666666,[8],1,random,5,5,28974,2,170,168,1.3363268605637698e+19,attentional-mouselab,5,324674,6
mouselab,False,"[13, 13, 11, 11, 10, 10]","[[3, 2, 7, 3, 3], [5, 8, 3, 3, 6], [4, 4, 7, 4, 5], [5, 6, 6, 7, 5], [8, 3, 6, 6, 2]]","[[2, 2, 2, 0, 2], [2, 2, 2, 0, 2], [2, 2, 2, 2, 0], [2, 0, 2, 2, 2], [2, 0, 0, 2, 2]]","[3, 9, 10, 7, 1]",16,3,3,0.044,0.041999999999999996,0.002,"[13, 11, 10]",3,random,5,5,34132,6,131,125,8.900505931384224e+18,attentional-mouselab,7,371023,6
mouselab,False,[],"[[1, 5, 5, 4, 2], [5, 1, 5, 5, 8], [3, 3, 7, 6, 6], [3, 5, 7, 5, 7], [4, 4, 1, 2, 4]]","[[0, 2, 0, 2, 2], [2, 0, 2, 2, 0], [2, 2, 2, 2, 2], [2, 2, 2, 2, 2], [2, 2, 0, 0, 2]]","[2, 12, 4, 1, 11]",22,4,4,0.058,0.058,0.0,[],0,extreme,5,5,9109,0,175,175,1.3978845886108006e+19,attentional-mouselab,8,384275,6
mouselab,False,[],"[[3, 4, 2, 7, 5], [2, 2, 6, 5, 4], [6, 3, 6, 4, 3], [2, 4, 6, 6, 4], [5, 5, 5, 6, 7]]","[[0, 2, 0, 2, 2], [0, 2, 2, 0, 2], [2, 2, 2, 2, 0], [2, 2, 2, 2, 2], [2, 2, 0, 2, 2]]","[10, 4, 5, 8, 3]",12,5,0,0.033,0.033,0.0,[],0,random,5,5,15305,0,99,99,1.6312760261660333e+17,attentional-mouselab,9,402720,6
mouselab,False,[],"[[7, 6, 3, 4, 5], [8, 5, 5, 4, 3], [6, 3, 3, 5, 6], [4, 1, 4, 5, 5], [6, 7, 4, 5, 6]]","[[0, 2, 0, 0, 0], [2, 2, 2, 2, 2], [0, 2, 2, 2, 2], [2, 2, 2, 2, 0], [2, 2, 2, 2, 2]]","[4, 5, 1, 9, 11]",16,6,4,0.051,0.051,0.0,[],0,random,5,5,14791,0,152,152,1.5406485141479457e+19,attentional-mouselab,10,421867,6
mouselab,False,[],"[[3, 6, 5, 5, 8], [4, 3, 3, 3, 3], [8, 4, 1, 4, 7], [7, 3, 6, 5, 3], [6, 2, 6, 6, 5]]","[[2, 0, 2, 2, 0], [2, 2, 0, 2, 2], [0, 2, 2, 0, 2], [0, 2, 2, 2, 2], [2, 2, 2, 2, 2]]","[1, 9, 6, 4, 10]",14,7,2,0.041,0.041,0.0,[],0,greedy,5,5,29125,0,122,122,5.991279848637548e+18,attentional-mouselab,11,453751,6
mouselab,False,"[5, 5, 6, 6]","[[8, 4, 4, 4, 5], [4, 3, 2, 5, 5], [6, 6, 7, 6, 4], [5, 5, 5, 5, 6], [6, 3, 4, 3, 1]]","[[0, 0, 2, 2, 2], [2, 2, 0, 0, 2], [2, 2, 2, 2, 2], [2, 0, 2, 2, 2], [2, 2, 2, 2, 0]]","[3, 11, 3, 4, 9]",16,8,3,0.044,0.042666666666666665,0.0013333333333333333,"[5, 6]",2,extreme,5,5,23544,4,132,128,7.897889398717275e+18,attentional-mouselab,12,479633,6
mouselab,False,[],"[[7, 6, 6, 7, 5], [2, 1, 5, 7, 5], [5, 7, 5, 4, 4], [6, 9, 6, 2, 6], [4, 7, 8, 6, 6]]","[[0, 2, 2, 0, 2], [2, 2, 2, 2, 2], [2, 0, 2, 2, 2], [2, 0, 2, 2, 2], [2, 0, 0, 2, 2]]","[7, 3, 12, 1, 7]",16,9,1,0.062,0.062,0.0,[],0,greedy,5,5,7768,0,187,187,5.739726591455018e+18,attentional-mouselab,13,489875,6
mouselab,False,[],"[[6, 2, 6, 2, 7], [6, 6, 3, 9, 7], [10, 5, 3, 5, 8], [6, 5, 2, 6, 6], [4, 6, 4, 6, 5]]","[[2, 2, 2, 0, 0], [2, 2, 2, 2, 0], [0, 2, 2, 2, 2], [2, 2, 2, 2, 0], [2, 2, 2, 2, 0]]","[1, 9, 9, 5, 6]",12,10,0,0.068,0.068,0.0,[],0,greedy,5,5,6211,0,204,204,1.809347408806052e+18,attentional-mouselab,14,498211,6
mouselab,False,[],"[[0, 7, 6, 6, 5], [5, 6, 9, 4, 5], [5, 4, 6, 3, 7], [4, 4, 5, 6, 4], [6, 7, 7, 9, 4]]","[[2, 2, 2, 2, 2], [2, 0, 0, 2, 2], [0, 2, 0, 2, 2], [2, 2, 2, 0, 2], [2, 2, 0, 2, 2]]","[2, 13, 9, 3, 3]",20,11,2,0.073,0.073,0.0,[],0,greedy,5,5,6903,0,219,219,2.428646324639655e+18,attentional-mouselab,15,507368,6
mouselab,False,[],"[[5, 3, 7, 6, 5], [6, 8, 6, 7, 3], [5, 6, 6, 6, 2], [4, 2, 2, 7, 5], [5, 1, 4, 4, 8]]","[[2, 2, 2, 2, 2], [2, 2, 2, 2, 0], [0, 2, 2, 2, 0], [2, 2, 0, 2, 2], [2, 0, 2, 2, 0]]","[2, 11, 3, 3, 11]",20,12,4,0.051,0.051,0.0,[],0,extreme,5,5,11612,0,152,152,9.661122162423583e+18,attentional-mouselab,16,520908,6
mouselab,False,[],"[[6, 5, 6, 6, 6], [5, 3, 6, 5, 7], [4, 4, 8, 7, 6], [8, 4, 6, 3, 6], [5, 7, 5, 5, 5]]","[[2, 2, 2, 2, 0], [2, 2, 2, 0, 0], [2, 2, 0, 2, 0], [2, 2, 2, 2, 0], [2, 2, 2, 2, 2]]","[2, 3, 1, 17, 7]",24,13,4,0.059,0.059,0.0,[],0,greedy,5,5,9366,0,176,176,1.6007761076229511e+19,attentional-mouselab,17,533948,6
mouselab,False,[],"[[6, 8, 4, 3, 8], [4, 4, 6, 5, 4], [7, 3, 4, 9, 6], [4, 4, 4, 2, 3], [5, 5, 4, 4, 8]]","[[2, 2, 2, 2, 0], [2, 2, 0, 2, 2], [2, 2, 2, 0, 0], [2, 2, 2, 0, 2], [2, 2, 2, 2, 0]]","[2, 5, 16, 4, 3]",20,14,3,0.065,0.065,0.0,[],0,greedy,5,5,9232,0,195,195,2.16269769303736e+17,attentional-mouselab,18,545496,6
mouselab,False,"[8, 8]","[[7, 6, 5, 4, 4], [1, 5, 7, 5, 5], [4, 5, 5, 8, 6], [5, 4, 5, 4, 8], [7, 5, 8, 7, 5]]","[[2, 2, 2, 0, 2], [0, 2, 2, 2, 2], [2, 2, 2, 0, 2], [2, 2, 2, 2, 0], [2, 2, 0, 0, 2]]","[7, 13, 3, 4, 3]",16,15,3,0.051,0.05033333333333333,0.0006666666666666666,[8],1,extreme,5,5,16386,2,154,152,1.4069912117929912e+19,attentional-mouselab,19,566741,6
mouselab,False,[],"[[4, 2, 3, 4, 3], [5, 6, 5, 6, 7], [8, 5, 7, 5, 6], [7, 4, 3, 6, 4], [4, 7, 4, 4, 9]]","[[2, 0, 2, 0, 2], [2, 2, 2, 2, 2], [0, 2, 2, 2, 2], [0, 2, 2, 2, 0], [2, 2, 2, 2, 0]]","[1, 7, 7, 12, 3]",16,16,0,0.064,0.064,0.0,[],0,extreme,5,5,10454,0,191,191,1.8209799147094614e+19,attentional-mouselab,20,579654,6
mouselab,False,"[6, 6, 8, 8, 7, 7, 9, 9]","[[5, 7, 4, 4, 6], [4, 4, 3, 2, 6], [5, 7, 4, 6, 4], [4, 5, 7, 3, 5], [7, 5, 7, 7, 6]]","[[2, 0, 2, 2, 2], [2, 2, 2, 2, 2], [2, 0, 2, 2, 2], [2, 0, 0, 2, 2], [2, 0, 2, 2, 0]]","[7, 10, 1, 5, 7]",12,17,4,0.058,0.05533333333333334,0.0026666666666666666,"[6, 8, 7, 9]",4,greedy,5,5,36384,8,173,165,1.3012320024791634e+19,attentional-mouselab,21,618807,6
mouselab,False,"[22, 22, 21, 21, 20, 20]","[[6, 3, 5, 5, 5], [4, 5, 8, 6, 6], [4, 5, 5, 6, 6], [6, 5, 5, 4, 7], [10, 4, 5, 3, 4]]","[[2, 2, 2, 0, 2], [2, 2, 0, 0, 2], [2, 2, 0, 2, 2], [0, 2, 0, 2, 2], [2, 2, 2, 2, 2]]","[3, 5, 5, 1, 16]",20,18,0,0.075,0.073,0.002,"[22, 21, 20]",3,random,5,5,17978,6,224,218,2.5194007246250624e+17,attentional-mouselab,22,643297,6
mouselab,False,"[8, 8]","[[5, 6, 6, 6, 7], [5, 5, 6, 6, 6], [8, 3, 7, 4, 6], [7, 4, 4, 6, 1], [4, 6, 5, 4, 3]]","[[2, 2, 2, 2, 2], [2, 2, 2, 2, 2], [0, 2, 0, 0, 2], [0, 2, 2, 0, 2], [2, 2, 2, 2, 0]]","[3, 9, 4, 8, 6]",10,19,3,0.053,0.05233333333333333,0.0006666666666666666,[8],1,random,5,5,17790,2,160,158,5.311267564610545e+18,attentional-mouselab,23,664104,6
mouselab,False,"[24, 24]","[[4, 4, 2, 7, 7], [6, 7, 5, 6, 2], [3, 5, 2, 5, 7], [6, 7, 1, 4, 7], [9, 6, 5, 4, 7]]","[[2, 0, 2, 2, 0], [2, 0, 2, 2, 2], [2, 2, 2, 2, 0], [0, 2, 2, 2, 0], [2, 2, 2, 2, 2]]","[6, 3, 9, 3, 9]",12,20,4,0.065,0.06433333333333334,0.0006666666666666666,[24],1,greedy,5,5,8675,2,195,193,4.056479221600437e+18,attentional-mouselab,24,676153,6
mouselab,False,[],"[[4, 3, 3, 5, 3], [3, 5, 7, 5, 3], [8, 7, 4, 6, 4], [4, 6, 5, 3, 5], [4, 6, 6, 3, 5]]","[[2, 2, 0, 2, 2], [2, 2, 2, 2, 2], [0, 2, 2, 0, 2], [2, 0, 0, 2, 2], [2, 0, 2, 2, 2]]","[2, 6, 11, 7, 4]",12,21,0,0.053,0.053,0.0,[],0,random,5,5,11531,0,158,158,7.041780557099325e+17,attentional-mouselab,25,690773,6
mouselab,False,"[17, 17, 18, 18, 19, 19, 16, 16, 15, 15]","[[7, 7, 6, 4, 3], [2, 5, 7, 4, 4], [5, 4, 3, 4, 6], [6, 4, 5, 4, 6], [3, 5, 3, 4, 9]]","[[2, 2, 0, 2, 2], [2, 2, 0, 2, 2], [2, 2, 2, 0, 2], [2, 2, 2, 2, 2], [0, 0, 2, 2, 0]]","[3, 1, 5, 16, 5]",20,22,4,0.061,0.057666666666666665,0.0033333333333333335,"[17, 18, 19, 16, 15]",5,random,5,5,22446,10,184,174,9.27573428684223e+18,attentional-mouselab,26,717599,6
mouselab,False,"[21, 21, 23, 23]","[[5, 3, 5, 7, 3], [1, 7, 6, 5, 3], [6, 5, 3, 8, 3], [6, 7, 3, 6, 3], [5, 3, 7, 5, 4]]","[[2, 0, 2, 2, 0], [0, 2, 2, 2, 2], [2, 2, 2, 0, 0], [2, 2, 0, 2, 2], [2, 2, 2, 2, 2]]","[9, 5, 3, 3, 10]",14,23,3,0.06,0.058666666666666666,0.0013333333333333333,"[21, 23]",2,extreme,5,5,22913,4,180,176,1.3047903985072933e+19,attentional-mouselab,27,744837,6
mouselab,False,[],"[[7, 2, 6, 4, 5], [4, 3, 2, 6, 4], [5, 4, 6, 4, 7], [6, 2, 4, 6, 7], [7, 4, 3, 6, 4]]","[[0, 2, 2, 0, 2], [2, 2, 2, 2, 2], [2, 2, 0, 0, 2], [2, 0, 2, 2, 2], [2, 2, 0, 2, 2]]","[17, 2, 5, 4, 2]",22,24,0,0.063,0.063,0.0,[],0,random,5,5,5511,0,190,190,1.9318679448282511e+18,attentional-mouselab,28,755294,6
mouselab,False,[],"[[7, 2, 3, 6, 7], [5, 5, 3, 3, 4], [5, 6, 6, 6, 4], [3, 1, 7, 6, 5], [5, 6, 6, 4, 6]]","[[0, 2, 2, 2, 2], [2, 2, 2, 2, 0], [2, 2, 0, 2, 2], [2, 0, 0, 2, 2], [2, 2, 0, 2, 2]]","[4, 10, 8, 6, 2]",12,25,2,0.048,0.048,0.0,[],0,greedy,5,5,13106,0,144,144,5.14099866603153e+18,attentional-mouselab,29,771015,6
mouselab,False,[],"[[8, 4, 7, 3, 4], [5, 2, 3, 5, 7], [6, 5, 6, 3, 6], [3, 5, 4, 5, 5], [6, 5, 6, 7, 6]]","[[0, 2, 2, 2, 2], [2, 2, 2, 2, 0], [2, 2, 2, 2, 0], [2, 0, 2, 2, 2], [2, 2, 0, 2, 0]]","[17, 3, 1, 6, 3]",22,26,0,0.064,0.064,0.0,[],0,greedy,5,5,4323,0,193,193,8.080042474079698e+18,attentional-mouselab,30,778052,6
mouselab,False,[],"[[2, 5, 9, 4, 7], [6, 5, 5, 5, 4], [7, 3, 3, 5, 6], [7, 8, 3, 3, 4], [3, 3, 7, 5, 2]]","[[0, 2, 0, 2, 2], [2, 2, 0, 2, 2], [2, 2, 0, 2, 2], [0, 0, 2, 2, 2], [2, 2, 2, 2, 2]]","[9, 9, 9, 2, 1]",18,27,2,0.055,0.055,0.0,[],0,extreme,5,5,7815,0,166,166,4.543709058698954e+18,attentional-mouselab,31,787951,6
mouselab,False,[],"[[4, 8, 5, 8, 5], [5, 5, 7, 3, 5], [7, 9, 5, 6, 5], [5, 6, 7, 1, 1], [9, 5, 6, 5, 3]]","[[2, 2, 2, 2, 2], [2, 0, 2, 2, 2], [0, 0, 2, 2, 2], [2, 0, 2, 2, 0], [0, 2, 2, 2, 2]]","[6, 1, 2, 15, 6]",18,28,1,0.064,0.064,0.0,[],0,extreme,5,5,6463,0,191,191,9.986981472187853e+18,attentional-mouselab,32,797255,6
mouselab,False,"[2, 2, 0, 0]","[[6, 3, 3, 7, 1], [6, 3, 5, 10, 4], [4, 6, 7, 3, 5], [7, 3, 8, 4, 3], [4, 7, 5, 5, 4]]","[[2, 2, 2, 2, 0], [0, 2, 2, 0, 2], [2, 2, 0, 2, 2], [2, 2, 0, 2, 0], [2, 2, 2, 2, 2]]","[9, 4, 8, 8, 1]",14,29,0,0.057,0.05566666666666667,0.0013333333333333333,"[2, 0]",2,extreme,5,5,24432,4,170,166,1.6172827492960668e+19,attentional-mouselab,33,825706,6
mouselab,False,[],"[[4, 6, 9, 6, 4], [6, 6, 9, 2, 3], [1, 5, 4, 8, 3], [4, 6, 3, 2, 5], [4, 5, 6, 8, 5]]","[[2, 2, 0, 2, 2], [2, 2, 0, 0, 0], [0, 2, 2, 2, 0], [2, 2, 2, 2, 2], [2, 2, 2, 2, 2]]","[7, 4, 7, 6, 6]",4,30,2,0.06,0.06,0.0,[],0,extreme,5,5,15720,0,181,181,1.402764187508378e+18,attentional-mouselab,34,844529,6
mouselab,False,"[15, 15, 9, 9, 19, 19, 8, 8, 18, 18]","[[5, 7, 3, 3, 4], [6, 4, 5, 2, 6], [5, 6, 4, 4, 5], [2, 5, 2, 7, 3], [4, 6, 4, 5, 8]]","[[0, 0, 2, 2, 2], [0, 2, 2, 2, 2], [2, 2, 0, 2, 2], [2, 2, 2, 2, 2], [2, 2, 0, 0, 2]]","[7, 9, 4, 9, 1]",14,31,4,0.046,0.042666666666666665,0.0033333333333333335,"[15, 9, 19, 8, 18]",5,random,5,5,42309,10,137,127,5.018400946479904e+18,attentional-mouselab,35,889010,6
mouselab,False,[],"[[5, 7, 5, 5, 2], [3, 4, 7, 5, 5], [7, 6, 1, 2, 4], [5, 2, 8, 5, 4], [8, 4, 6, 6, 7]]","[[2, 2, 0, 0, 2], [2, 2, 0, 2, 2], [2, 0, 2, 2, 2], [0, 2, 2, 2, 2], [2, 2, 0, 2, 2]]","[11, 3, 8, 5, 3]",14,32,2,0.047,0.047,0.0,[],0,random,5,5,26326,0,142,142,1.826692507475409e+19,attentional-mouselab,36,917316,6
mouselab,True,"[0, 0, 1, 1, 4, 4, 15, 15, 16, 16, 17]","[[6, 2, 6, 6, 4], [2, 7, 5, 5, 6], [6, 5, 4, 1, 4], [7, 4, 5, 4, 7], [6, 3, 7, 8, 7]]","[[2, 2, 0, 0, 2], [2, 2, 2, 0, 0], [2, 0, 2, 2, 2], [2, 2, 2, 2, 2], [2, 2, 2, 2, 0]]","[13, 5, 4, 7, 1]",16,1,0,0.056,0.052333333333333336,0.0036666666666666666,"[0, 1, 4, 15, 16]",5,random,5,5,27313,11,167,156,1.4038305497322105e+19,attentional-mouselab,4,206621,7
mouselab,True,"[12, 12, 11, 11, 10, 10, 13, 13, 14, 14]","[[7, 6, 5, 7, 7], [5, 4, 5, 2, 3], [3, 5, 6, 6, 6], [7, 4, 2, 4, 5], [6, 5, 4, 3, 6]]","[[2, 2, 2, 2, 2], [2, 2, 0, 2, 2], [2, 2, 2, 2, 2], [2, 0, 0, 2, 2], [2, 2, 0, 0, 0]]","[3, 5, 12, 1, 9]",18,2,2,0.05,0.04666666666666667,0.0033333333333333335,"[12, 11, 10, 13, 14]",5,random,5,5,17829,10,150,140,1.045966928839099e+19,attentional-mouselab,5,227390,7
mouselab,False,"[2, 2]","[[8, 5, 7, 6, 2], [7, 3, 4, 3, 5], [4, 6, 7, 4, 5], [5, 4, 7, 3, 7], [5, 3, 8, 4, 3]]","[[0, 2, 2, 2, 0], [2, 2, 2, 2, 2], [2, 2, 2, 2, 2], [2, 0, 2, 0, 2], [0, 2, 0, 2, 2]]","[1, 7, 4, 13, 5]",16,3,2,0.065,0.06433333333333334,0.0006666666666666666,[2],1,extreme,5,5,6773,2,194,192,5.021314054390426e+18,attentional-mouselab,7,241233,7
mouselab,False,[],"[[5, 6, 5, 4, 6], [5, 5, 4, 6, 2], [5, 5, 4, 7, 6], [7, 3, 7, 3, 5], [6, 6, 4, 4, 5]]","[[2, 2, 2, 2, 2], [2, 0, 2, 2, 2], [0, 2, 2, 2, 2], [0, 2, 2, 2, 2], [2, 0, 0, 0, 2]]","[7, 6, 8, 6, 3]",6,4,0,0.055,0.055,0.0,[],0,random,5,5,7912,0,165,165,4.5774065706473974e+18,attentional-mouselab,8,251634,7
mouselab,False,[],"[[5, 6, 6, 6, 7], [5, 5, 6, 6, 6], [8, 3, 7, 4, 6], [7, 4, 4, 6, 1], [4, 6, 5, 4, 3]]","[[2, 2, 2, 2, 2], [2, 2, 2, 2, 2], [0, 2, 0, 2, 2], [0, 2, 2, 0, 0], [2, 2, 2, 2, 0]]","[4, 1, 6, 8, 11]",14,5,0,0.058,0.058,0.0,[],0,extreme,5,5,2770,0,173,173,5.311267564610545e+18,attentional-mouselab,9,257535,7
mouselab,False,[],"[[5, 6, 4, 7, 5], [7, 5, 4, 4, 2], [7, 4, 5, 3, 5], [5, 6, 4, 5, 10], [5, 3, 6, 3, 3]]","[[2, 0, 2, 0, 2], [2, 2, 2, 2, 0], [2, 2, 2, 2, 0], [2, 2, 2, 2, 0], [2, 2, 2, 0, 2]]","[4, 3, 4, 13, 6]",14,6,4,0.065,0.065,0.0,[],0,extreme,5,5,1787,0,194,194,1.292552158333483e+19,attentional-mouselab,10,262065,7
mouselab,False,"[0, 0]","[[5, 3, 1, 7, 7], [6, 4, 4, 6, 3], [4, 2, 4, 4, 4], [5, 6, 7, 4, 5], [7, 4, 6, 8, 4]]","[[2, 2, 0, 2, 2], [0, 2, 2, 2, 2], [2, 2, 0, 2, 0], [2, 2, 2, 2, 2], [2, 0, 0, 2, 2]]","[10, 5, 4, 8, 3]",12,7,0,0.052,0.05133333333333333,0.0006666666666666666,[0],1,random,5,5,7289,2,157,155,1.472381825451582e+19,attentional-mouselab,11,271116,7
mouselab,False,[],"[[8, 0, 8, 5, 3], [9, 3, 7, 8, 5], [7, 3, 5, 9, 6], [4, 6, 4, 4, 5], [6, 4, 3, 6, 5]]","[[2, 2, 2, 2, 2], [2, 2, 0, 2, 0], [2, 2, 0, 0, 0], [2, 2, 2, 2, 2], [0, 2, 2, 2, 2]]","[4, 11, 7, 3, 5]",12,8,3,0.071,0.071,0.0,[],0,random,5,5,2280,0,213,213,1.3331428949323696e+19,attentional-mouselab,12,275714,7
mouselab,False,[],"[[5, 6, 2, 4, 3], [5, 6, 5, 6, 3], [7, 3, 4, 4, 3], [7, 3, 5, 6, 5], [4, 6, 4, 5, 5]]","[[2, 2, 2, 0, 2], [2, 2, 0, 2, 2], [2, 2, 2, 2, 0], [2, 2, 2, 0, 0], [0, 2, 2, 2, 2]]","[5, 9, 3, 6, 7]",8,9,3,0.052,0.052,0.0,[],0,random,5,5,2233,0,157,157,8.542130017440408e+18,attentional-mouselab,13,279284,7
mouselab,False,[],"[[6, 6, 4, 5, 7], [3, 5, 4, 7, 8], [5, 6, 7, 8, 3], [4, 7, 3, 2, 5], [5, 0, 7, 7, 6]]","[[2, 2, 2, 0, 0], [0, 2, 2, 2, 0], [2, 2, 2, 0, 2], [0, 2, 2, 2, 2], [2, 2, 2, 2, 2]]","[11, 3, 11, 4, 1]",20,10,4,0.053,0.053,0.0,[],0,greedy,5,5,1494,0,160,160,1.6861388886506742e+19,attentional-mouselab,14,282773,7
mouselab,False,[],"[[4, 4, 5, 4, 7], [6, 5, 5, 3, 5], [3, 5, 4, 4, 5], [7, 6, 5, 4, 9], [7, 6, 5, 4, 8]]","[[2, 2, 0, 0, 2], [2, 2, 0, 2, 2], [2, 0, 2, 2, 2], [2, 2, 2, 2, 0], [2, 0, 2, 2, 2]]","[9, 3, 9, 1, 8]",16,11,4,0.065,0.065,0.0,[],0,random,5,5,4043,0,196,196,7.557381217494117e+18,attentional-mouselab,15,289317,7
mouselab,False,[],"[[4, 3, 4, 6, 5], [1, 5, 7, 2, 7], [4, 6, 6, 5, 4], [8, 5, 4, 8, 5], [6, 4, 6, 8, 7]]","[[2, 2, 0, 2, 2], [0, 2, 2, 2, 2], [2, 0, 2, 2, 2], [0, 2, 2, 0, 2], [2, 2, 2, 0, 2]]","[12, 5, 2, 10, 1]",20,12,3,0.06,0.06,0.0,[],0,extreme,5,5,1965,0,180,180,1.715777568430563e+18,attentional-mouselab,16,294005,7
mouselab,False,[],"[[10, 5, 9, 5, 8], [4, 6, 4, 4, 3], [3, 4, 5, 7, 4], [6, 7, 8, 7, 7], [3, 7, 5, 5, 4]]","[[0, 2, 2, 2, 0], [0, 2, 2, 2, 2], [2, 2, 2, 2, 2], [2, 2, 2, 2, 2], [0, 0, 2, 0, 2]]","[2, 7, 5, 14, 2]",18,13,0,0.051,0.051,0.0,[],0,random,5,5,1858,0,153,153,1.4602578550221666e+19,attentional-mouselab,17,298811,7
mouselab,False,[],"[[5, 5, 8, 5, 7], [3, 6, 7, 3, 2], [3, 5, 5, 6, 6], [6, 7, 5, 4, 4], [7, 6, 6, 4, 8]]","[[0, 2, 0, 2, 2], [2, 2, 0, 2, 2], [0, 2, 0, 2, 2], [2, 2, 2, 2, 2], [0, 2, 2, 2, 2]]","[5, 3, 14, 6, 2]",16,14,2,0.058,0.058,0.0,[],0,greedy,5,5,1807,0,173,173,1.079634633305957e+19,attentional-mouselab,18,302453,7
mouselab,False,[],"[[6, 4, 3, 4, 4], [3, 7, 6, 5, 4], [4, 7, 6, 2, 6], [5, 7, 6, 6, 3], [7, 10, 7, 6, 4]]","[[2, 2, 0, 2, 2], [0, 2, 2, 2, 2], [2, 0, 2, 0, 2], [2, 2, 2, 2, 0], [2, 0, 2, 2, 2]]","[7, 5, 5, 11, 2]",12,15,1,0.065,0.065,0.0,[],0,extreme,5,5,1620,0,195,195,1.4430856413298363e+18,attentional-mouselab,19,309644,7
mouselab,False,[],"[[3, 2, 5, 3, 6], [4, 1, 8, 4, 4], [4, 6, 4, 4, 4], [7, 5, 7, 3, 5], [4, 4, 5, 7, 6]]","[[0, 0, 2, 2, 2], [2, 0, 0, 2, 2], [2, 2, 0, 2, 2], [2, 0, 2, 2, 2], [2, 2, 2, 2, 2]]","[2, 9, 5, 12, 2]",18,16,2,0.065,0.065,0.0,[],0,extreme,5,5,1309,0,196,196,1.0679498637987279e+19,attentional-mouselab,20,312804,7
mouselab,False,[],"[[5, 8, 5, 4, 6], [6, 6, 3, 5, 3], [7, 2, 3, 4, 7], [2, 4, 5, 4, 5], [2, 4, 4, 2, 7]]","[[2, 2, 0, 2, 2], [2, 0, 2, 0, 2], [2, 2, 2, 0, 2], [2, 2, 2, 2, 2], [0, 2, 2, 2, 0]]","[2, 3, 3, 21, 1]",30,17,4,0.051,0.051,0.0,[],0,random,5,5,2707,0,154,154,5.649055456679208e+18,attentional-mouselab,21,316774,7
mouselab,False,[],"[[5, 1, 5, 6, 4], [4, 5, 3, 8, 4], [7, 2, 6, 4, 5], [4, 4, 3, 4, 7], [5, 4, 6, 3, 6]]","[[2, 0, 2, 2, 2], [2, 2, 2, 0, 2], [2, 0, 2, 2, 2], [2, 2, 0, 2, 0], [2, 2, 2, 0, 2]]","[3, 4, 9, 10, 4]",14,18,3,0.046,0.046,0.0,[],0,extreme,5,5,2491,0,138,138,1.2085984928568938e+19,attentional-mouselab,22,320556,7
mouselab,False,[],"[[4, 6, 4, 5, 5], [5, 4, 1, 10, 6], [3, 5, 5, 5, 4], [5, 4, 8, 4, 4], [3, 0, 5, 4, 6]]","[[2, 2, 2, 0, 2], [2, 2, 2, 0, 2], [2, 2, 2, 2, 2], [2, 0, 0, 2, 2], [0, 0, 2, 2, 2]]","[3, 7, 4, 10, 6]",10,19,3,0.056,0.056,0.0,[],0,greedy,5,5,1570,0,169,169,5.74811970422675e+18,attentional-mouselab,23,324221,7
mouselab,False,[],"[[9, 9, 1, 0, 5], [3, 6, 8, 5, 4], [6, 3, 5, 5, 7], [4, 1, 5, 6, 4], [5, 5, 8, 2, 6]]","[[0, 2, 0, 0, 2], [0, 2, 0, 2, 2], [2, 2, 2, 2, 2], [2, 2, 2, 2, 2], [2, 2, 0, 2, 2]]","[6, 6, 15, 1, 2]",18,20,0,0.059,0.059,0.0,[],0,greedy,5,5,1820,0,176,176,7.062910679790771e+18,attentional-mouselab,24,327668,7
mouselab,False,[],"[[6, 3, 4, 5, 4], [6, 6, 5, 4, 6], [2, 2, 6, 9, 5], [6, 5, 5, 7, 4], [7, 5, 4, 6, 9]]","[[2, 2, 2, 2, 2], [0, 2, 2, 2, 0], [2, 2, 2, 0, 2], [2, 2, 0, 0, 2], [2, 2, 2, 2, 0]]","[9, 5, 10, 4, 2]",14,21,3,0.065,0.065,0.0,[],0,greedy,5,5,2075,0,195,195,8.586858439757219e+18,attentional-mouselab,25,331541,7
mouselab,False,[],"[[3, 2, 1, 4, 5], [2, 8, 8, 4, 5], [1, 4, 4, 9, 7], [6, 7, 5, 4, 4], [6, 3, 5, 4, 8]]","[[2, 2, 0, 2, 2], [2, 2, 0, 2, 2], [0, 2, 2, 2, 0], [2, 2, 2, 2, 0], [2, 2, 2, 2, 0]]","[5, 4, 2, 12, 7]",14,22,4,0.054,0.054,0.0,[],0,greedy,5,5,2095,0,163,163,9.191659770910776e+18,attentional-mouselab,26,335867,7
mouselab,False,[],"[[5, 2, 4, 4, 3], [4, 3, 2, 5, 7], [4, 6, 4, 5, 3], [5, 6, 5, 6, 5], [3, 4, 4, 4, 5]]","[[2, 0, 2, 2, 0], [0, 2, 2, 2, 2], [2, 2, 0, 2, 2], [2, 2, 2, 0, 2], [0, 2, 2, 2, 2]]","[2, 4, 3, 6, 15]",18,23,3,0.046,0.046,0.0,[],0,greedy,5,5,2866,0,139,139,7.519620904768927e+18,attentional-mouselab,27,339772,7
mouselab,False,[],"[[6, 7, 5, 10, 5], [3, 6, 5, 5, 9], [8, 3, 5, 5, 4], [6, 7, 5, 3, 1], [7, 6, 5, 6, 4]]","[[2, 2, 2, 0, 2], [2, 2, 2, 2, 2], [0, 2, 0, 2, 2], [2, 0, 2, 0, 2], [2, 2, 2, 0, 2]]","[6, 10, 3, 6, 5]",8,24,3,0.058,0.058,0.0,[],0,greedy,5,5,1419,0,173,173,1.1285882372266468e+18,attentional-mouselab,28,342490,7
mouselab,False,"[22, 22]","[[5, 4, 2, 7, 6], [5, 4, 6, 3, 5], [3, 2, 1, 4, 6], [4, 3, 8, 6, 5], [4, 7, 7, 3, 4]]","[[2, 2, 2, 2, 0], [2, 2, 2, 0, 2], [2, 2, 2, 2, 0], [2, 2, 0, 0, 2], [2, 0, 2, 2, 2]]","[5, 7, 1, 4, 13]",16,25,2,0.059,0.05833333333333333,0.0006666666666666666,[22],1,greedy,5,5,4681,2,176,174,7.505067142142545e+17,attentional-mouselab,29,348300,7
mouselab,False,[],"[[7, 5, 6, 6, 4], [5, 5, 6, 4, 4], [8, 3, 3, 5, 3], [5, 5, 5, 1, 8], [2, 2, 9, 4, 5]]","[[2, 2, 2, 2, 2], [0, 2, 2, 2, 2], [0, 2, 2, 2, 2], [0, 2, 2, 0, 2], [2, 2, 0, 0, 2]]","[14, 2, 5, 1, 8]",20,26,0,0.056,0.056,0.0,[],0,extreme,5,5,2510,0,169,169,1.4851912560667498e+19,attentional-mouselab,30,352187,7
mouselab,False,[],"[[5, 5, 5, 4, 7], [6, 5, 6, 3, 8], [4, 5, 6, 4, 2], [5, 5, 3, 2, 6], [4, 6, 4, 8, 3]]","[[0, 2, 2, 0, 0], [2, 0, 0, 2, 0], [2, 2, 2, 2, 2], [2, 2, 2, 2, 2], [2, 2, 2, 2, 2]]","[2, 6, 2, 5, 15]",18,27,4,0.047,0.047,0.0,[],0,random,5,5,1470,0,141,141,1.4064732548263342e+19,attentional-mouselab,31,355058,7
mouselab,False,[],"[[6, 5, 5, 3, 3], [4, 6, 7, 7, 1], [6, 3, 3, 8, 4], [2, 4, 5, 6, 6], [5, 7, 9, 3, 4]]","[[2, 2, 2, 2, 2], [2, 0, 2, 2, 0], [2, 2, 0, 0, 2], [2, 2, 2, 2, 2], [2, 2, 0, 0, 2]]","[1, 9, 1, 5, 14]",22,28,2,0.074,0.074,0.0,[],0,extreme,5,5,1528,0,222,222,9.37396432404221e+18,attentional-mouselab,32,358652,7
mouselab,False,[],"[[3, 8, 8, 4, 3], [3, 7, 6, 5, 4], [3, 4, 7, 3, 5], [4, 6, 6, 5, 6], [9, 4, 4, 7, 8]]","[[2, 2, 0, 2, 2], [0, 2, 0, 2, 2], [2, 2, 0, 0, 2], [2, 2, 0, 2, 2], [2, 2, 2, 2, 2]]","[3, 3, 11, 3, 10]",18,29,2,0.059,0.059,0.0,[],0,greedy,5,5,1668,0,177,177,1.5028094095827372e+19,attentional-mouselab,33,362043,7
mouselab,False,[],"[[6, 5, 3, 3, 8], [5, 3, 4, 8, 6], [3, 6, 6, 7, 9], [2, 2, 6, 5, 3], [4, 2, 4, 6, 5]]","[[2, 2, 2, 2, 0], [2, 0, 2, 2, 2], [0, 0, 2, 2, 2], [2, 2, 2, 0, 2], [0, 2, 2, 2, 2]]","[3, 4, 7, 9, 7]",10,30,4,0.058,0.058,0.0,[],0,random,5,5,2669,0,173,173,1.6059127226478811e+19,attentional-mouselab,34,366868,7
mouselab,False,[],"[[7, 8, 2, 4, 5], [6, 6, 3, 6, 6], [7, 5, 6, 6, 7], [4, 3, 5, 5, 4], [7, 5, 5, 2, 7]]","[[2, 0, 0, 2, 2], [2, 2, 2, 2, 2], [0, 2, 2, 2, 2], [2, 2, 0, 0, 2], [2, 2, 2, 0, 2]]","[6, 11, 10, 2, 1]",18,31,1,0.058,0.058,0.0,[],0,extreme,5,5,1666,0,175,175,1.6963549866614694e+19,attentional-mouselab,35,369627,7
mouselab,False,[],"[[5, 2, 6, 4, 5], [6, 5, 4, 2, 6], [7, 4, 4, 4, 5], [3, 5, 6, 4, 6], [4, 6, 3, 6, 5]]","[[0, 2, 2, 0, 2], [2, 2, 2, 2, 0], [2, 2, 0, 0, 2], [2, 2, 2, 0, 2], [2, 2, 2, 2, 2]]","[7, 4, 10, 2, 7]",12,32,0,0.054,0.054,0.0,[],0,random,5,5,3749,0,163,163,1.079706379922333e+19,attentional-mouselab,36,374442,7
mouselab,True,"[7, 7, 7, 7, 18, 18, 18, 5, 5, 5, 3, 3, 15, 15, 11, 11, 24, 24, 19, 19]","[[4, 6, 5, 4, 1], [8, 5, 6, 4, 6], [4, 4, 2, 6, 6], [4, 9, 6, 3, 4], [6, 4, 4, 3, 6]]","[[2, 0, 2, 2, 0], [2, 2, 2, 2, 2], [2, 2, 2, 2, 0], [2, 2, 0, 2, 2], [2, 0, 0, 2, 2]]","[2, 6, 4, 12, 6]",12,1,2,0.05,0.04466666666666667,0.005333333333333333,"[7, 18, 5, 3, 15, 11, 24, 19]",8,random,5,5,49282,16,150,134,5.980583859709009e+18,attentional-mouselab,4,228545,8
mouselab,True,[],"[[3, 4, 3, 1, 5], [5, 4, 4, 5, 6], [6, 6, 7, 5, 7], [8, 5, 5, 4, 3], [5, 3, 3, 5, 4]]","[[2, 2, 2, 0, 2], [2, 0, 2, 0, 2], [2, 2, 2, 2, 2], [2, 0, 0, 2, 2], [2, 2, 2, 0, 2]]","[4, 4, 13, 8, 1]",18,2,4,0.054,0.054,0.0,[],0,random,5,5,21428,0,163,163,9.557428711027735e+18,attentional-mouselab,5,253850,8
mouselab,False,[],"[[5, 6, 8, 6, 7], [5, 6, 7, 5, 6], [4, 8, 7, 4, 9], [4, 8, 6, 2, 4], [8, 6, 2, 6, 7]]","[[2, 2, 2, 2, 2], [2, 0, 0, 2, 0], [2, 2, 2, 2, 2], [2, 0, 2, 2, 2], [0, 2, 2, 0, 2]]","[12, 2, 4, 10, 2]",20,3,1,0.069,0.069,0.0,[],0,random,5,5,8203,0,208,208,1.5997351454107027e+19,attentional-mouselab,7,269672,8
mouselab,False,[],"[[4, 5, 5, 7, 5], [9, 6, 7, 5, 6], [6, 9, 7, 5, 8], [3, 6, 6, 1, 4], [4, 5, 5, 4, 6]]","[[2, 2, 2, 2, 0], [0, 2, 0, 0, 2], [2, 0, 2, 2, 2], [2, 2, 2, 0, 2], [2, 2, 2, 2, 2]]","[4, 7, 6, 1, 12]",14,4,2,0.059,0.059,0.0,[],0,extreme,5,5,8253,0,177,177,7.015965883335329e+18,attentional-mouselab,8,280501,8
mouselab,False,[],"[[8, 5, 3, 3, 4], [10, 6, 6, 6, 5], [4, 5, 8, 4, 8], [6, 3, 5, 6, 5], [4, 6, 7, 4, 7]]","[[0, 2, 0, 0, 2], [0, 2, 2, 2, 2], [2, 0, 2, 2, 2], [2, 2, 2, 2, 2], [2, 2, 2, 2, 0]]","[1, 2, 13, 7, 7]",18,5,0,0.05,0.05,0.0,[],0,greedy,5,5,3956,0,150,150,1.1960909740358898e+19,attentional-mouselab,9,288431,8
mouselab,False,[],"[[3, 5, 5, 6, 5], [6, 7, 5, 3, 4], [7, 5, 6, 5, 6], [4, 10, 3, 6, 5], [8, 6, 7, 5, 3]]","[[0, 2, 0, 2, 2], [2, 2, 2, 0, 2], [2, 2, 2, 2, 2], [2, 0, 2, 2, 0], [2, 2, 2, 2, 0]]","[2, 4, 18, 3, 3]",24,6,2,0.056,0.056,0.0,[],0,random,5,5,8063,0,168,168,3.7509502992557814e+18,attentional-mouselab,10,298550,8
mouselab,False,[],"[[9, 9, 1, 0, 5], [3, 6, 8, 5, 4], [6, 3, 5, 5, 7], [4, 1, 5, 6, 4], [5, 5, 8, 2, 6]]","[[0, 2, 0, 0, 2], [0, 2, 0, 2, 2], [2, 2, 2, 2, 2], [2, 2, 2, 2, 2], [2, 2, 0, 2, 2]]","[14, 1, 3, 3, 9]",22,7,2,0.041,0.041,0.0,[],0,greedy,5,5,4996,0,124,124,7.062910679790771e+18,attentional-mouselab,11,305349,8
mouselab,False,[],"[[6, 5, 6, 4, 4], [4, 6, 5, 4, 5], [5, 4, 5, 6, 5], [5, 3, 6, 6, 9], [3, 7, 3, 6, 5]]","[[2, 2, 2, 2, 2], [0, 2, 2, 2, 2], [2, 2, 0, 2, 2], [0, 2, 0, 2, 0], [2, 2, 0, 2, 2]]","[5, 14, 2, 2, 7]",18,8,4,0.051,0.051,0.0,[],0,random,5,5,5890,0,153,153,4.08631189156383e+18,attentional-mouselab,12,313182,8
mouselab,False,[],"[[6, 7, 5, 6, 6], [2, 3, 9, 3, 6], [6, 5, 4, 2, 4], [6, 5, 5, 5, 5], [5, 7, 4, 6, 1]]","[[2, 0, 2, 2, 2], [2, 2, 0, 2, 2], [2, 0, 2, 2, 2], [2, 0, 2, 2, 2], [2, 0, 0, 2, 2]]","[4, 12, 6, 7, 1]",14,9,4,0.052,0.052,0.0,[],0,greedy,5,5,4997,0,156,156,1.5305317117221313e+19,attentional-mouselab,13,320257,8
mouselab,False,[],"[[4, 2, 8, 6, 7], [5, 7, 7, 5, 7], [7, 2, 4, 7, 7], [5, 6, 7, 5, 4], [1, 6, 4, 7, 5]]","[[2, 2, 2, 0, 2], [2, 2, 2, 2, 2], [0, 2, 0, 2, 2], [0, 2, 0, 2, 2], [2, 0, 2, 2, 2]]","[8, 5, 1, 3, 13]",18,10,0,0.031,0.031,0.0,[],0,random,5,5,3744,0,92,92,1.2395817909876519e+19,attentional-mouselab,14,325509,8
mouselab,False,[],"[[5, 7, 5, 6, 5], [5, 6, 5, 3, 4], [5, 5, 8, 3, 5], [3, 5, 4, 6, 7], [8, 5, 5, 5, 4]]","[[2, 2, 2, 2, 2], [0, 2, 2, 0, 2], [2, 0, 2, 2, 2], [2, 2, 2, 0, 2], [2, 0, 0, 2, 2]]","[20, 2, 6, 1, 1]",28,11,0,0.05,0.05,0.0,[],0,random,5,5,6298,0,151,151,1.4961880072655526e+19,attentional-mouselab,15,334262,8
mouselab,False,[],"[[3, 2, 7, 4, 6], [5, 4, 3, 4, 5], [6, 6, 3, 8, 4], [3, 3, 5, 5, 6], [6, 4, 2, 7, 5]]","[[2, 0, 2, 2, 2], [2, 0, 2, 2, 0], [2, 2, 0, 0, 2], [2, 2, 2, 2, 2], [2, 2, 0, 2, 2]]","[4, 1, 15, 1, 9]",24,12,3,0.069,0.069,0.0,[],0,extreme,5,5,2682,0,208,208,2.7844543343190385e+18,attentional-mouselab,16,338606,8
mouselab,False,[],"[[6, 3, 6, 7, 5], [5, 4, 4, 3, 4], [5, 5, 6, 6, 7], [6, 8, 6, 8, 5], [3, 3, 6, 6, 7]]","[[0, 2, 2, 2, 2], [2, 2, 2, 2, 2], [2, 0, 2, 2, 2], [2, 0, 2, 0, 0], [2, 0, 2, 2, 2]]","[1, 2, 14, 9, 4]",22,13,2,0.059,0.059,0.0,[],0,extreme,5,5,3500,0,176,176,9.122225820408013e+18,attentional-mouselab,17,343964,8
mouselab,False,[],"[[4, 5, 8, 7, 10], [9, 6, 2, 5, 3], [5, 5, 3, 2, 5], [5, 3, 2, 6, 1], [6, 2, 4, 5, 2]]","[[2, 2, 0, 2, 0], [0, 0, 2, 2, 2], [2, 2, 2, 2, 2], [2, 2, 2, 2, 0], [2, 0, 2, 2, 2]]","[1, 2, 9, 5, 13]",20,14,0,0.057,0.057,0.0,[],0,extreme,5,5,2676,0,170,170,1.5119908604201277e+19,attentional-mouselab,18,348134,8
mouselab,False,[],"[[8, 7, 5, 3, 5], [5, 5, 6, 5, 5], [5, 6, 8, 2, 4], [6, 6, 3, 5, 4], [7, 4, 4, 2, 7]]","[[0, 2, 2, 2, 0], [2, 0, 2, 0, 2], [2, 2, 0, 0, 2], [2, 2, 2, 2, 2], [2, 2, 2, 2, 2]]","[2, 3, 4, 19, 2]",26,15,3,0.043,0.043,0.0,[],0,extreme,5,5,3821,0,128,128,1.1527487947544134e+19,attentional-mouselab,19,353701,8
mouselab,False,[],"[[4, 9, 1, 3, 8], [3, 4, 5, 5, 1], [4, 7, 0, 4, 3], [6, 5, 5, 6, 4], [7, 6, 3, 8, 4]]","[[2, 2, 2, 0, 0], [2, 0, 2, 2, 2], [2, 2, 2, 2, 2], [0, 0, 2, 2, 2], [2, 0, 2, 2, 2]]","[10, 7, 6, 3, 4]",10,16,3,0.046,0.046,0.0,[],0,random,5,5,2333,0,139,139,4.4326740565656776e+18,attentional-mouselab,20,357975,8
mouselab,False,[],"[[3, 5, 10, 5, 10], [4, 6, 6, 7, 2], [5, 7, 5, 3, 5], [4, 7, 6, 6, 7], [7, 2, 4, 3, 4]]","[[2, 0, 0, 2, 0], [2, 2, 2, 0, 0], [2, 2, 2, 2, 2], [2, 2, 2, 2, 0], [2, 2, 2, 2, 2]]","[2, 3, 7, 5, 13]",16,17,4,0.049,0.049,0.0,[],0,extreme,5,5,3155,0,148,148,1.4901145400353833e+19,attentional-mouselab,21,362524,8
mouselab,False,[],"[[5, 7, 3, 8, 2], [7, 3, 5, 6, 5], [5, 4, 7, 4, 3], [5, 2, 6, 3, 4], [5, 6, 5, 3, 6]]","[[2, 0, 2, 2, 0], [0, 2, 0, 0, 2], [2, 2, 2, 2, 2], [2, 2, 2, 2, 2], [2, 2, 2, 2, 0]]","[4, 13, 8, 2, 3]",18,18,0,0.059,0.059,0.0,[],0,random,5,5,4082,0,176,176,1.638062792352525e+19,attentional-mouselab,22,368183,8
mouselab,False,[],"[[2, 3, 2, 5, 5], [4, 5, 2, 5, 7], [4, 6, 7, 4, 4], [3, 5, 5, 7, 6], [4, 4, 6, 4, 4]]","[[0, 0, 0, 2, 2], [2, 2, 0, 2, 2], [2, 2, 2, 2, 2], [2, 2, 0, 2, 2], [2, 2, 2, 2, 0]]","[14, 3, 2, 2, 9]",22,19,3,0.048,0.048,0.0,[],0,extreme,5,5,1622,0,143,143,1.0488188100994034e+19,attentional-mouselab,23,371797,8
mouselab,False,[],"[[6, 7, 6, 6, 6], [6, 6, 4, 5, 6], [6, 6, 4, 8, 2], [6, 6, 5, 4, 5], [4, 3, 2, 4, 7]]","[[2, 2, 2, 2, 2], [2, 2, 2, 2, 2], [2, 2, 2, 0, 0], [0, 2, 0, 2, 2], [2, 2, 0, 2, 0]]","[13, 4, 1, 2, 10]",22,20,3,0.051,0.051,0.0,[],0,extreme,5,5,2205,0,154,154,2.143075765151552e+18,attentional-mouselab,24,375416,8
