type,is_practice,click_values,payoff_matrix,cost_matrix,weights,weights_deviation,trial_num,selected_option,gross_earnings,net_earnings,click_cost,uncovered_values,num_values_revealed,nudge_type,num_baskets,num_features,reaction_time,points_click_cost,points_action_utility,points_metalevel_reward,trial_type,trial_index,time_elapsed,participant_id
mouselab,True,"[10, 10, 10, 10, 22, 22, 22, 22]","[[3, 4, 7, 5, 7], [4, 6, 4, 4, 0], [3, 6, 2, 8, 4], [4, 5, 1, 6, 7], [7, 7, 6, 6, 4]]","[[4, 4, 4, 4, 4], [4, 0, 4, 0, 4], [0, 4, 4, 0, 0], [0, 0, 0, 0, 4], [4, 0, 0, 4, 0]]","[3, 9, 8, 5, 5]",10,1,3,0.058,0.05533333333333334,0.0026666666666666666,"[10, 22]",2,random,5,5,36990,8,175,167,attentional-mouselab,4,249370,0
mouselab,True,[],"[[3, 4, 6, 3, 4], [8, 6, 4, 3, 3], [5, 6, 9, 5, 6], [5, 5, 3, 8, 6], [2, 6, 8, 7, 3]]","[[4, 0, 0, 4, 4], [0, 0, 4, 4, 4], [4, 0, 4, 0, 0], [4, 4, 4, 4, 4], [4, 0, 0, 4, 0]]","[2, 8, 3, 15, 2]",22,2,0,0.055,0.055,0.0,[],0,random,5,5,49768,0,164,164,attentional-mouselab,5,327924,0
mouselab,False,[],"[[5, 4, 3, 3, 7], [6, 2, 7, 5, 5], [4, 4, 5, 5, 1], [6, 4, 4, 3, 8], [4, 6, 2, 7, 3]]","[[0, 4, 4, 0, 0], [0, 4, 4, 4, 4], [0, 0, 4, 0, 4], [0, 4, 4, 4, 4], [0, 4, 4, 4, 0]]","[8, 3, 8, 2, 9]",14,3,4,0.041,0.041,0.0,[],0,greedy,5,5,18639,0,122,122,attentional-mouselab,7,355373,0
mouselab,False,[],"[[6, 4, 7, 9, 7], [5, 7, 4, 0, 7], [2, 4, 7, 7, 3], [6, 8, 5, 6, 4], [7, 4, 5, 2, 5]]","[[4, 4, 4, 4, 0], [4, 4, 0, 0, 0], [4, 0, 0, 4, 0], [0, 4, 0, 4, 4], [4, 0, 4, 4, 4]]","[3, 3, 6, 12, 6]",12,4,2,0.055,0.055,0.0,[],0,random,5,5,6655,0,165,165,attentional-mouselab,8,363980,0
mouselab,False,[],"[[3, 5, 6, 7, 5], [5, 6, 3, 6, 3], [5, 8, 8, 7, 6], [5, 5, 5, 3, 5], [5, 2, 6, 3, 7]]","[[4, 0, 4, 0, 0], [0, 4, 4, 0, 4], [4, 4, 4, 0, 4], [4, 4, 4, 0, 4], [0, 4, 4, 0, 0]]","[2, 9, 6, 8, 5]",10,5,3,0.05,0.05,0.0,[],0,greedy,5,5,9713,0,149,149,attentional-mouselab,9,377622,0
mouselab,False,[],"[[2, 3, 2, 8, 7], [6, 6, 6, 5, 8], [5, 8, 5, 8, 5], [6, 7, 1, 7, 7], [3, 7, 5, 3, 8]]","[[0, 4, 4, 4, 0], [4, 0, 0, 0, 4], [4, 0, 0, 4, 4], [4, 4, 0, 4, 0], [4, 0, 4, 4, 4]]","[3, 9, 5, 11, 2]",16,6,4,0.07,0.07,0.0,[],0,random,5,5,6519,0,211,211,attentional-mouselab,10,386662,0
mouselab,False,[],"[[5, 7, 5, 6, 7], [4, 5, 8, 4, 4], [5, 5, 5, 4, 6], [6, 3, 3, 7, 4], [6, 6, 4, 6, 5]]","[[4, 0, 0, 0, 4], [4, 0, 4, 0, 4], [4, 0, 0, 4, 4], [4, 0, 4, 4, 4], [4, 0, 4, 4, 0]]","[4, 5, 4, 5, 12]",12,7,1,0.053,0.053,0.0,[],0,greedy,5,5,8119,0,160,160,attentional-mouselab,11,398294,0
mouselab,False,[],"[[3, 3, 4, 5, 6], [5, 6, 5, 5, 2], [6, 4, 6, 6, 4], [4, 5, 4, 5, 3], [8, 3, 8, 6, 4]]","[[4, 4, 0, 0, 0], [4, 4, 4, 0, 0], [4, 4, 4, 0, 4], [0, 4, 0, 4, 4], [0, 0, 4, 4, 4]]","[2, 11, 1, 7, 9]",18,8,0,0.056,0.056,0.0,[],0,random,5,5,13318,0,167,167,attentional-mouselab,12,414430,0
mouselab,False,[],"[[5, 5, 3, 7, 4], [5, 4, 5, 6, 4], [6, 4, 4, 7, 8], [4, 6, 2, 4, 8], [5, 7, 8, 3, 5]]","[[4, 0, 4, 4, 0], [4, 4, 0, 4, 0], [4, 4, 0, 4, 0], [4, 4, 4, 4, 0], [4, 0, 4, 0, 0]]","[8, 5, 2, 11, 4]",14,9,4,0.059,0.059,0.0,[],0,greedy,5,5,11463,0,176,176,attentional-mouselab,13,427694,0
mouselab,False,"[0, 0, 0, 0]","[[5, 5, 3, 2, 7], [4, 3, 3, 4, 4], [7, 5, 9, 7, 8], [3, 3, 6, 3, 4], [4, 4, 5, 4, 3]]","[[0, 4, 0, 0, 4], [4, 4, 4, 0, 4], [0, 0, 4, 0, 0], [4, 0, 4, 0, 4], [4, 4, 4, 0, 4]]","[10, 2, 8, 7, 3]",14,10,4,0.06,0.058666666666666666,0.0013333333333333333,[0],1,greedy,5,5,13730,4,179,175,attentional-mouselab,14,447553,0
mouselab,False,[],"[[4, 6, 7, 6, 6], [4, 4, 2, 3, 9], [7, 8, 8, 1, 7], [9, 5, 3, 3, 3], [5, 4, 6, 2, 3]]","[[4, 4, 0, 4, 0], [0, 4, 0, 4, 4], [4, 4, 4, 0, 0], [4, 4, 0, 4, 0], [0, 4, 0, 4, 4]]","[11, 10, 1, 4, 4]",18,11,2,0.047,0.047,0.0,[],0,random,5,5,8575,0,141,141,attentional-mouselab,15,461377,0
mouselab,False,[],"[[1, 6, 7, 3, 5], [6, 2, 3, 3, 8], [6, 4, 5, 2, 9], [2, 5, 5, 4, 5], [5, 7, 6, 4, 9]]","[[0, 0, 0, 0, 0], [4, 4, 4, 4, 4], [4, 4, 0, 4, 0], [4, 0, 4, 4, 4], [4, 0, 4, 0, 4]]","[15, 3, 2, 7, 3]",20,12,1,0.053,0.053,0.0,[],0,random,5,5,6951,0,160,160,attentional-mouselab,16,469649,0
mouselab,False,[],"[[8, 3, 6, 5, 6], [5, 4, 5, 5, 4], [3, 2, 3, 6, 4], [5, 5, 3, 5, 9], [1, 7, 6, 7, 4]]","[[0, 0, 4, 4, 0], [4, 4, 4, 4, 4], [0, 0, 4, 4, 4], [4, 0, 4, 4, 0], [0, 0, 4, 0, 4]]","[3, 6, 9, 10, 2]",14,13,1,0.038,0.038,0.0,[],0,random,5,5,2943,0,115,115,attentional-mouselab,17,477681,0
mouselab,False,[],"[[4, 4, 6, 6, 2], [8, 5, 5, 0, 6], [3, 2, 6, 4, 6], [2, 3, 3, 2, 4], [5, 7, 6, 8, 7]]","[[4, 4, 0, 4, 4], [0, 4, 4, 4, 0], [0, 4, 0, 0, 4], [4, 4, 4, 4, 0], [0, 0, 4, 0, 4]]","[1, 5, 1, 10, 13]",22,14,0,0.044,0.044,0.0,[],0,random,5,5,4487,0,132,132,attentional-mouselab,18,483857,0
mouselab,False,[],"[[8, 7, 6, 3, 5], [9, 7, 7, 4, 4], [6, 9, 4, 7, 5], [7, 7, 8, 3, 1], [6, 3, 5, 4, 5]]","[[0, 4, 4, 0, 4], [0, 0, 4, 0, 0], [4, 4, 4, 4, 4], [0, 0, 4, 4, 0], [4, 4, 4, 4, 0]]","[8, 5, 3, 12, 2]",16,15,0,0.074,0.074,0.0,[],0,random,5,5,7023,0,223,223,attentional-mouselab,19,492425,0
mouselab,False,[],"[[3, 7, 6, 7, 6], [8, 7, 2, 4, 2], [5, 4, 2, 7, 7], [4, 5, 7, 2, 6], [6, 5, 6, 7, 7]]","[[0, 4, 4, 0, 4], [0, 4, 4, 0, 0], [4, 4, 0, 0, 4], [4, 0, 4, 4, 4], [4, 4, 4, 0, 0]]","[2, 2, 18, 4, 4]",24,16,3,0.061,0.061,0.0,[],0,random,5,5,4807,0,184,184,attentional-mouselab,20,498881,0
mouselab,False,[],"[[2, 4, 5, 5, 6], [7, 5, 4, 7, 4], [7, 5, 2, 5, 2], [4, 5, 6, 8, 4], [5, 3, 7, 3, 5]]","[[4, 0, 0, 0, 4], [4, 0, 0, 4, 4], [4, 0, 0, 4, 4], [4, 4, 0, 4, 4], [4, 0, 0, 4, 4]]","[1, 2, 7, 17, 3]",24,17,2,0.05,0.05,0.0,[],0,greedy,5,5,3287,0,150,150,attentional-mouselab,21,503761,0
mouselab,False,[],"[[6, 5, 5, 5, 8], [7, 5, 5, 4, 3], [6, 2, 7, 5, 6], [6, 5, 7, 6, 9], [4, 6, 4, 8, 7]]","[[0, 4, 0, 4, 4], [4, 4, 0, 0, 0], [4, 4, 0, 4, 4], [0, 4, 0, 4, 4], [0, 4, 0, 4, 4]]","[5, 6, 5, 3, 11]",10,18,2,0.052,0.052,0.0,[],0,greedy,5,5,3175,0,155,155,attentional-mouselab,22,508737,0
mouselab,False,[],"[[6, 4, 6, 6, 5], [1, 4, 6, 5, 6], [5, 5, 5, 6, 6], [5, 5, 6, 3, 4], [6, 6, 6, 2, 6]]","[[0, 4, 4, 0, 4], [0, 4, 4, 0, 4], [0, 4, 0, 0, 4], [0, 4, 4, 0, 4], [4, 4, 4, 0, 4]]","[3, 9, 5, 7, 6]",8,19,3,0.042,0.042,0.0,[],0,greedy,5,5,5375,0,126,126,attentional-mouselab,23,516425,0
mouselab,False,[],"[[7, 6, 6, 1, 3], [4, 6, 6, 6, 5], [4, 5, 6, 6, 5], [5, 6, 6, 6, 8], [7, 8, 3, 6, 4]]","[[4, 4, 0, 0, 4], [0, 4, 4, 0, 0], [4, 4, 4, 0, 4], [0, 0, 4, 0, 4], [4, 4, 4, 0, 4]]","[2, 7, 3, 10, 8]",14,20,3,0.057,0.057,0.0,[],0,greedy,5,5,5575,0,170,170,attentional-mouselab,24,523425,0
mouselab,False,[],"[[6, 8, 5, 7, 4], [8, 4, 6, 6, 5], [6, 5, 7, 4, 7], [5, 4, 6, 5, 5], [4, 4, 7, 6, 6]]","[[0, 4, 0, 4, 0], [4, 0, 4, 4, 0], [0, 4, 4, 4, 0], [0, 4, 4, 4, 0], [4, 4, 4, 0, 4]]","[17, 4, 2, 6, 1]",22,21,4,0.046,0.046,0.0,[],0,random,5,5,5191,0,138,138,attentional-mouselab,25,530481,0
mouselab,False,[],"[[4, 5, 2, 5, 6], [5, 5, 1, 5, 5], [4, 5, 4, 5, 9], [6, 9, 5, 5, 4], [7, 6, 3, 5, 6]]","[[4, 0, 4, 0, 4], [4, 0, 4, 4, 4], [4, 0, 4, 4, 0], [4, 0, 4, 0, 4], [0, 0, 4, 4, 0]]","[6, 5, 11, 3, 5]",10,22,1,0.056,0.056,0.0,[],0,greedy,5,5,3775,0,167,167,attentional-mouselab,26,535513,0
mouselab,True,[],"[[5, 4, 3, 7, 5], [7, 6, 7, 5, 4], [6, 7, 4, 6, 6], [6, 7, 4, 6, 5], [7, 6, 6, 5, 4]]","[[0, 4, 4, 4, 0], [4, 4, 4, 4, 4], [0, 0, 4, 4, 4], [4, 4, 0, 0, 0], [4, 4, 0, 0, 0]]","[1, 11, 12, 3, 3]",22,1,1,0.064,0.064,0.0,[],0,random,5,5,7627,0,193,193,attentional-mouselab,4,274742,1
mouselab,True,[],"[[6, 6, 7, 9, 5], [4, 6, 4, 4, 6], [4, 5, 5, 6, 6], [5, 1, 7, 4, 4], [5, 6, 5, 4, 8]]","[[0, 4, 4, 0, 0], [0, 0, 4, 4, 4], [4, 4, 4, 4, 4], [4, 4, 4, 0, 4], [0, 0, 0, 0, 4]]","[6, 5, 5, 5, 9]",6,2,0,0.049,0.049,0.0,[],0,random,5,5,8832,0,146,146,attentional-mouselab,5,286766,1
mouselab,False,[],"[[3, 0, 4, 6, 5], [9, 5, 5, 6, 3], [5, 6, 7, 4, 8], [4, 4, 5, 7, 2], [6, 7, 4, 3, 3]]","[[0, 0, 4, 0, 0], [4, 4, 4, 4, 0], [4, 4, 0, 0, 4], [4, 4, 0, 4, 0], [0, 4, 4, 4, 4]]","[2, 5, 1, 12, 10]",20,3,2,0.047,0.047,0.0,[],0,random,5,5,4743,0,140,140,attentional-mouselab,7,300016,1
mouselab,False,[],"[[5, 5, 6, 6, 7], [6, 8, 6, 5, 4], [8, 2, 7, 5, 5], [7, 3, 7, 6, 4], [4, 6, 4, 5, 5]]","[[4, 4, 0, 4, 0], [4, 4, 4, 0, 0], [4, 4, 0, 4, 0], [0, 4, 4, 4, 0], [4, 4, 0, 4, 0]]","[8, 1, 6, 10, 5]",12,4,1,0.04,0.04,0.0,[],0,greedy,5,5,6861,0,120,120,attentional-mouselab,8,309086,1
mouselab,False,[],"[[6, 6, 5, 4, 4], [3, 5, 8, 3, 4], [4, 5, 4, 3, 4], [7, 4, 4, 2, 5], [2, 2, 5, 1, 4]]","[[0, 4, 4, 0, 4], [0, 4, 4, 0, 0], [0, 4, 4, 0, 4], [0, 4, 4, 4, 4], [0, 4, 4, 4, 0]]","[6, 8, 3, 3, 10]",12,5,2,0.056,0.056,0.0,[],0,greedy,5,5,12017,0,168,168,attentional-mouselab,9,323298,1
mouselab,False,[],"[[7, 6, 8, 7, 7], [4, 7, 6, 3, 3], [4, 5, 5, 7, 5], [4, 5, 5, 6, 6], [5, 5, 5, 6, 5]]","[[4, 0, 0, 4, 0], [4, 4, 4, 0, 4], [0, 4, 0, 0, 4], [4, 4, 4, 4, 4], [4, 0, 0, 0, 4]]","[1, 2, 10, 7, 10]",18,6,4,0.052,0.052,0.0,[],0,random,5,5,2706,0,155,155,attentional-mouselab,10,327952,1
mouselab,False,[],"[[4, 5, 2, 5, 6], [5, 5, 1, 5, 5], [4, 5, 4, 5, 9], [6, 9, 5, 5, 4], [7, 6, 3, 5, 6]]","[[4, 0, 4, 0, 4], [4, 4, 0, 4, 0], [0, 0, 4, 4, 0], [4, 4, 4, 0, 4], [4, 4, 0, 4, 0]]","[10, 8, 3, 4, 5]",12,7,4,0.058,0.058,0.0,[],0,random,5,5,7954,0,173,173,attentional-mouselab,11,338268,1
mouselab,False,[],"[[3, 2, 7, 4, 6], [5, 6, 5, 4, 7], [8, 3, 7, 2, 6], [6, 7, 5, 4, 7], [3, 6, 9, 5, 1]]","[[0, 4, 0, 0, 4], [0, 0, 4, 4, 0], [0, 4, 4, 4, 4], [0, 4, 0, 4, 4], [0, 4, 4, 4, 4]]","[7, 5, 2, 6, 10]",10,8,2,0.069,0.069,0.0,[],0,greedy,5,5,10888,0,208,208,attentional-mouselab,12,351638,1
mouselab,False,[],"[[6, 1, 4, 5, 5], [9, 7, 4, 4, 7], [3, 3, 7, 5, 7], [7, 4, 7, 3, 4], [7, 5, 5, 2, 7]]","[[4, 4, 0, 0, 4], [4, 4, 0, 4, 4], [4, 4, 0, 4, 0], [4, 4, 0, 4, 0], [4, 4, 0, 0, 0]]","[16, 1, 4, 8, 1]",24,9,0,0.06,0.06,0.0,[],0,greedy,5,5,2345,0,180,180,attentional-mouselab,13,357042,1
mouselab,False,[],"[[7, 4, 7, 4, 7], [0, 6, 4, 2, 6], [5, 4, 9, 5, 4], [7, 3, 4, 7, 1], [7, 4, 5, 8, 5]]","[[4, 0, 0, 4, 4], [4, 0, 4, 0, 4], [4, 0, 4, 4, 4], [0, 0, 0, 4, 0], [4, 0, 4, 4, 4]]","[6, 2, 9, 10, 3]",14,10,1,0.038,0.038,0.0,[],0,greedy,5,5,5624,0,114,114,attentional-mouselab,14,364734,1
mouselab,False,[],"[[5, 2, 4, 5, 4], [4, 7, 2, 5, 5], [7, 6, 2, 7, 7], [5, 4, 7, 3, 3], [5, 6, 6, 3, 9]]","[[4, 4, 4, 0, 4], [4, 4, 4, 0, 4], [0, 4, 0, 0, 0], [4, 4, 4, 0, 0], [4, 4, 0, 0, 4]]","[5, 7, 9, 6, 3]",8,11,1,0.052,0.052,0.0,[],0,greedy,5,5,1609,0,155,155,attentional-mouselab,15,368259,1
mouselab,False,[],"[[8, 7, 4, 6, 6], [5, 6, 7, 3, 4], [2, 5, 5, 5, 6], [6, 9, 6, 3, 5], [4, 9, 1, 2, 7]]","[[0, 0, 4, 4, 4], [0, 0, 4, 0, 4], [4, 0, 0, 4, 4], [4, 0, 4, 4, 4], [4, 0, 0, 4, 4]]","[3, 2, 4, 14, 7]",18,12,1,0.081,0.081,0.0,[],0,greedy,5,5,3583,0,242,242,attentional-mouselab,16,373495,1
mouselab,False,[],"[[5, 8, 6, 5, 5], [6, 5, 5, 5, 5], [4, 6, 2, 4, 4], [7, 4, 6, 4, 5], [4, 6, 5, 8, 6]]","[[0, 4, 4, 0, 0], [0, 4, 4, 0, 4], [4, 0, 4, 0, 4], [4, 0, 4, 0, 4], [4, 4, 0, 4, 4]]","[5, 4, 6, 2, 13]",14,13,2,0.046,0.046,0.0,[],0,random,5,5,6451,0,139,139,attentional-mouselab,17,381725,1
mouselab,False,[],"[[8, 3, 4, 2, 3], [3, 7, 4, 4, 7], [2, 7, 4, 5, 5], [5, 3, 5, 7, 6], [6, 3, 4, 5, 7]]","[[0, 4, 4, 4, 4], [0, 4, 4, 0, 4], [0, 4, 4, 4, 0], [0, 0, 0, 4, 4], [0, 0, 4, 4, 4]]","[11, 3, 3, 11, 2]",20,14,0,0.057,0.057,0.0,[],0,greedy,5,5,6463,0,170,170,attentional-mouselab,18,389831,1
mouselab,False,[],"[[2, 6, 3, 7, 5], [5, 3, 8, 5, 7], [7, 2, 4, 5, 6], [3, 4, 5, 6, 3], [5, 5, 3, 5, 2]]","[[4, 0, 0, 4, 4], [4, 0, 4, 4, 0], [0, 4, 4, 0, 4], [4, 4, 0, 0, 4], [0, 0, 4, 4, 4]]","[12, 4, 10, 3, 1]",20,15,4,0.053,0.053,0.0,[],0,random,5,5,3800,0,159,159,attentional-mouselab,19,395338,1
mouselab,False,[1],"[[7, 4, 3, 6, 7], [4, 7, 3, 7, 7], [7, 3, 4, 5, 0], [4, 7, 2, 6, 3], [8, 2, 4, 4, 5]]","[[0, 3, 4, 4, 0], [0, 4, 4, 4, 0], [0, 0, 4, 0, 4], [4, 4, 0, 0, 4], [4, 0, 4, 4, 4]]","[8, 5, 4, 7, 6]",6,16,1,0.047,0.04666666666666667,0.0003333333333333333,[],0,random,5,5,13673,1,140,139,attentional-mouselab,20,411670,1
mouselab,False,[],"[[8, 3, 9, 4, 2], [3, 3, 6, 4, 2], [6, 4, 7, 5, 7], [5, 7, 4, 6, 3], [6, 6, 6, 5, 5]]","[[4, 4, 4, 4, 0], [4, 0, 4, 0, 0], [0, 4, 4, 4, 0], [0, 4, 4, 4, 0], [4, 0, 4, 4, 0]]","[6, 2, 4, 6, 12]",12,17,2,0.063,0.063,0.0,[],0,greedy,5,5,2667,0,190,190,attentional-mouselab,21,415966,1
mouselab,False,[],"[[4, 5, 5, 5, 6], [8, 4, 6, 7, 4], [4, 3, 4, 6, 6], [7, 5, 5, 5, 4], [4, 4, 4, 4, 4]]","[[4, 4, 0, 0, 4], [4, 4, 0, 0, 4], [0, 0, 0, 0, 4], [4, 4, 0, 4, 4], [4, 4, 0, 4, 4]]","[6, 11, 6, 1, 6]",10,18,4,0.048,0.048,0.0,[],0,greedy,5,5,2269,0,144,144,attentional-mouselab,22,419552,1
mouselab,False,[],"[[5, 5, 5, 5, 3], [7, 8, 5, 5, 3], [8, 2, 6, 7, 6], [5, 4, 6, 6, 7], [8, 2, 4, 6, 4]]","[[4, 4, 4, 0, 0], [4, 0, 0, 0, 0], [4, 4, 4, 0, 0], [4, 0, 4, 4, 4], [4, 4, 0, 4, 4]]","[4, 4, 14, 2, 6]",16,19,3,0.062,0.062,0.0,[],0,random,5,5,2595,0,186,186,attentional-mouselab,23,423140,1
mouselab,False,[],"[[6, 5, 5, 4, 5], [2, 6, 1, 5, 7], [5, 4, 6, 5, 4], [7, 8, 8, 3, 6], [3, 6, 7, 1, 6]]","[[4, 4, 0, 4, 0], [4, 0, 4, 0, 4], [0, 4, 0, 4, 4], [0, 0, 4, 4, 4], [0, 0, 4, 4, 4]]","[3, 5, 4, 14, 4]",16,20,4,0.058,0.058,0.0,[],0,random,5,5,8239,0,174,174,attentional-mouselab,24,432561,1
mouselab,False,[],"[[6, 8, 4, 4, 5], [7, 4, 4, 3, 7], [6, 5, 7, 3, 7], [4, 2, 4, 1, 8], [3, 6, 6, 6, 5]]","[[0, 4, 0, 4, 0], [4, 0, 4, 4, 4], [4, 0, 0, 4, 4], [4, 4, 0, 4, 4], [0, 0, 0, 4, 4]]","[13, 9, 5, 1, 2]",20,21,3,0.036,0.036,0.0,[],0,random,5,5,3597,0,107,107,attentional-mouselab,25,437437,1
mouselab,False,[],"[[6, 3, 2, 5, 4], [5, 6, 5, 6, 8], [8, 4, 3, 4, 6], [2, 3, 7, 5, 5], [4, 4, 5, 2, 5]]","[[4, 4, 0, 4, 4], [4, 4, 4, 4, 4], [4, 0, 4, 0, 4], [0, 0, 0, 0, 0], [4, 0, 4, 0, 4]]","[2, 1, 10, 9, 8]",18,22,0,0.049,0.049,0.0,[],0,random,5,5,6839,0,147,147,attentional-mouselab,26,445815,1
mouselab,True,[],"[[5, 6, 2, 6, 4], [5, 3, 3, 4, 4], [4, 5, 7, 3, 8], [5, 3, 6, 4, 7], [4, 5, 8, 4, 8]]","[[0, 0, 4, 4, 4], [4, 4, 0, 4, 4], [4, 4, 0, 0, 0], [0, 4, 4, 0, 4], [4, 4, 0, 0, 4]]","[13, 3, 3, 2, 9]",20,1,1,0.051,0.051,0.0,[],0,random,5,5,10032,0,153,153,attentional-mouselab,4,258929,2
mouselab,True,[],"[[6, 2, 6, 1, 5], [5, 5, 4, 3, 3], [5, 5, 6, 3, 5], [8, 5, 4, 8, 5], [4, 3, 4, 8, 2]]","[[0, 0, 4, 4, 4], [4, 0, 0, 4, 4], [0, 4, 4, 4, 4], [0, 0, 4, 0, 4], [0, 4, 4, 0, 4]]","[3, 6, 9, 6, 6]",6,2,4,0.04,0.04,0.0,[],0,random,5,5,14703,0,120,120,attentional-mouselab,5,277249,2
mouselab,False,[],"[[1, 7, 5, 5, 1], [2, 4, 4, 5, 9], [1, 5, 3, 4, 7], [4, 5, 6, 6, 6], [1, 5, 6, 4, 7]]","[[4, 4, 4, 0, 0], [4, 0, 0, 0, 4], [4, 0, 4, 4, 4], [4, 4, 0, 4, 0], [4, 4, 4, 0, 0]]","[1, 11, 9, 7, 2]",18,3,3,0.049,0.049,0.0,[],0,random,5,5,5551,0,146,146,attentional-mouselab,7,288553,2
mouselab,False,[],"[[7, 5, 2, 6, 7], [5, 5, 4, 5, 3], [4, 2, 5, 4, 7], [5, 3, 7, 3, 5], [5, 2, 5, 6, 6]]","[[4, 0, 0, 0, 0], [0, 4, 4, 4, 4], [4, 0, 4, 4, 4], [0, 4, 0, 0, 4], [4, 4, 0, 4, 4]]","[6, 2, 3, 5, 14]",16,4,2,0.047,0.047,0.0,[],0,random,5,5,9015,0,140,140,attentional-mouselab,8,299529,2
mouselab,False,[],"[[3, 6, 6, 3, 5], [4, 6, 5, 8, 1], [6, 5, 8, 5, 5], [7, 5, 4, 3, 6], [3, 6, 7, 5, 2]]","[[4, 4, 0, 0, 0], [4, 4, 4, 4, 0], [4, 4, 0, 4, 0], [0, 4, 4, 4, 0], [0, 4, 4, 4, 0]]","[1, 8, 5, 3, 13]",18,5,1,0.057,0.057,0.0,[],0,greedy,5,5,6207,0,172,172,attentional-mouselab,9,307929,2
mouselab,False,[],"[[5, 3, 5, 5, 4], [5, 5, 5, 8, 5], [6, 7, 6, 6, 8], [4, 4, 4, 2, 6], [6, 7, 3, 4, 4]]","[[0, 4, 4, 0, 4], [0, 4, 4, 0, 4], [0, 4, 4, 4, 4], [0, 4, 4, 4, 0], [0, 0, 4, 4, 0]]","[6, 9, 2, 8, 5]",10,6,3,0.05,0.05,0.0,[],0,greedy,5,5,6271,0,150,150,attentional-mouselab,10,317281,2
mouselab,False,[],"[[3, 5, 7, 6, 8], [5, 3, 4, 3, 6], [4, 4, 2, 8, 7], [6, 3, 6, 4, 5], [5, 7, 6, 4, 3]]","[[4, 0, 4, 4, 4], [4, 0, 0, 4, 0], [4, 0, 4, 4, 0], [0, 0, 4, 4, 4], [4, 0, 4, 0, 4]]","[2, 6, 1, 7, 14]",18,7,1,0.05,0.05,0.0,[],0,greedy,5,5,7558,0,151,151,attentional-mouselab,11,326433,2
mouselab,False,[],"[[5, 9, 5, 6, 5], [4, 3, 4, 5, 4], [6, 2, 5, 6, 7], [4, 7, 5, 9, 5], [3, 5, 7, 9, 4]]","[[4, 4, 4, 0, 0], [4, 4, 4, 0, 4], [4, 4, 4, 0, 0], [4, 4, 0, 0, 4], [0, 0, 4, 0, 4]]","[7, 3, 6, 10, 4]",10,8,3,0.073,0.073,0.0,[],0,greedy,5,5,6039,0,219,219,attentional-mouselab,12,333985,2
mouselab,False,[],"[[6, 3, 6, 5, 5], [5, 4, 5, 6, 4], [4, 5, 4, 4, 6], [3, 7, 5, 7, 5], [4, 3, 6, 6, 5]]","[[4, 4, 4, 4, 4], [0, 4, 0, 0, 0], [0, 4, 4, 0, 0], [4, 0, 0, 4, 4], [4, 0, 4, 4, 4]]","[4, 6, 11, 7, 2]",12,9,4,0.052,0.052,0.0,[],0,random,5,5,9143,0,155,155,attentional-mouselab,13,344305,2
mouselab,False,[],"[[3, 5, 4, 3, 5], [3, 9, 4, 5, 7], [7, 7, 5, 7, 4], [5, 6, 7, 6, 3], [5, 4, 5, 3, 5]]","[[0, 4, 4, 0, 4], [0, 4, 4, 4, 0], [0, 4, 4, 0, 4], [4, 4, 0, 0, 0], [4, 4, 4, 4, 0]]","[6, 2, 13, 6, 3]",14,10,3,0.055,0.055,0.0,[],0,random,5,5,7198,0,164,164,attentional-mouselab,14,353241,2
mouselab,False,[],"[[3, 5, 4, 6, 6], [6, 5, 4, 8, 5], [4, 3, 1, 7, 5], [6, 5, 7, 8, 4], [4, 6, 5, 7, 6]]","[[4, 4, 4, 4, 0], [4, 4, 4, 4, 4], [0, 4, 0, 4, 0], [0, 0, 0, 0, 4], [4, 0, 4, 4, 0]]","[5, 4, 1, 16, 4]",20,11,3,0.075,0.075,0.0,[],0,random,5,5,8158,0,225,225,attentional-mouselab,15,362618,2
mouselab,False,[],"[[8, 6, 5, 6, 3], [5, 5, 4, 5, 6], [1, 6, 6, 5, 8], [3, 6, 5, 6, 8], [6, 5, 8, 5, 3]]","[[4, 4, 0, 0, 4], [0, 0, 4, 0, 0], [4, 4, 4, 4, 0], [4, 4, 0, 4, 4], [0, 4, 4, 4, 0]]","[3, 5, 1, 14, 7]",18,12,1,0.056,0.056,0.0,[],0,random,5,5,9655,0,168,168,attentional-mouselab,16,373665,2
mouselab,False,[],"[[5, 4, 7, 6, 6], [4, 3, 6, 4, 4], [6, 5, 5, 4, 4], [7, 6, 4, 5, 6], [5, 6, 5, 5, 5]]","[[4, 0, 4, 4, 0], [0, 4, 4, 4, 0], [4, 4, 4, 0, 0], [4, 0, 4, 4, 0], [4, 4, 4, 0, 0]]","[2, 5, 7, 9, 7]",10,13,1,0.051,0.051,0.0,[],0,greedy,5,5,8342,0,154,154,attentional-mouselab,17,384313,2
mouselab,False,[],"[[2, 3, 6, 7, 5], [7, 6, 6, 6, 5], [4, 3, 4, 7, 3], [6, 1, 5, 2, 4], [6, 9, 5, 8, 5]]","[[0, 4, 0, 4, 4], [0, 4, 0, 0, 0], [4, 4, 4, 4, 4], [0, 0, 0, 4, 4], [4, 4, 4, 4, 0]]","[3, 6, 8, 9, 4]",10,14,3,0.054,0.054,0.0,[],0,random,5,5,8383,0,163,163,attentional-mouselab,18,394305,2
mouselab,False,[],"[[5, 9, 5, 4, 5], [2, 4, 4, 4, 3], [5, 5, 3, 5, 5], [2, 7, 3, 4, 5], [2, 5, 5, 5, 4]]","[[0, 4, 4, 4, 4], [0, 0, 0, 4, 4], [0, 0, 4, 4, 0], [0, 4, 4, 4, 4], [0, 0, 4, 4, 4]]","[1, 2, 14, 10, 3]",24,15,3,0.046,0.046,0.0,[],0,random,5,5,4632,0,137,137,attentional-mouselab,19,400593,2
mouselab,False,[],"[[3, 2, 8, 6, 7], [6, 6, 6, 7, 5], [4, 4, 8, 7, 5], [4, 5, 5, 4, 6], [6, 4, 6, 5, 1]]","[[4, 0, 0, 0, 4], [4, 4, 0, 0, 4], [4, 4, 0, 4, 4], [4, 4, 0, 4, 4], [0, 4, 0, 0, 4]]","[4, 5, 15, 1, 5]",18,16,2,0.072,0.072,0.0,[],0,greedy,5,5,2671,0,217,217,attentional-mouselab,20,404296,2
mouselab,False,[],"[[5, 5, 6, 4, 4], [0, 3, 7, 2, 4], [8, 5, 4, 3, 6], [6, 6, 7, 1, 9], [7, 6, 7, 4, 6]]","[[0, 4, 4, 0, 4], [0, 4, 4, 0, 4], [0, 0, 4, 4, 4], [0, 4, 0, 4, 4], [0, 4, 4, 0, 4]]","[11, 5, 2, 8, 4]",14,17,2,0.064,0.064,0.0,[],0,greedy,5,5,4303,0,193,193,attentional-mouselab,21,409673,2
mouselab,False,[],"[[3, 5, 4, 3, 6], [8, 7, 3, 4, 5], [5, 6, 5, 6, 3], [6, 5, 5, 4, 4], [6, 3, 4, 8, 6]]","[[4, 0, 0, 4, 4], [0, 4, 4, 0, 4], [0, 4, 0, 4, 4], [4, 0, 0, 4, 4], [4, 0, 0, 4, 4]]","[8, 13, 6, 1, 2]",18,18,0,0.059,0.059,0.0,[],0,random,5,5,3558,0,176,176,attentional-mouselab,22,414249,2
mouselab,False,[],"[[4, 7, 5, 3, 7], [6, 8, 2, 7, 6], [2, 5, 5, 5, 4], [5, 8, 4, 6, 7], [3, 2, 10, 3, 10]]","[[4, 4, 0, 0, 4], [4, 4, 0, 4, 0], [4, 4, 0, 0, 0], [4, 0, 0, 4, 4], [4, 4, 0, 4, 4]]","[7, 10, 7, 2, 4]",12,19,4,0.064,0.064,0.0,[],0,greedy,5,5,10495,0,191,191,attentional-mouselab,23,429537,2
mouselab,False,[],"[[7, 5, 3, 2, 5], [7, 5, 6, 5, 6], [8, 2, 5, 5, 3], [4, 6, 5, 6, 8], [4, 6, 3, 5, 5]]","[[4, 4, 0, 4, 4], [0, 4, 0, 0, 4], [0, 4, 0, 0, 4], [4, 4, 0, 4, 4], [4, 4, 0, 0, 4]]","[2, 8, 13, 5, 2]",18,20,0,0.067,0.067,0.0,[],0,greedy,5,5,18655,0,202,202,attentional-mouselab,24,450033,2
mouselab,False,[],"[[7, 8, 4, 4, 6], [7, 3, 2, 6, 7], [9, 6, 7, 5, 4], [5, 7, 8, 6, 4], [4, 6, 6, 4, 5]]","[[0, 0, 4, 4, 0], [4, 4, 4, 4, 0], [4, 4, 4, 4, 0], [4, 0, 0, 4, 0], [4, 0, 4, 4, 0]]","[11, 2, 2, 4, 11]",20,21,1,0.067,0.067,0.0,[],0,greedy,5,5,6375,0,200,200,attentional-mouselab,25,458050,2
mouselab,False,"[2, 2, 2, 2]","[[6, 6, 5, 4, 7], [7, 4, 4, 6, 5], [4, 5, 5, 4, 4], [5, 6, 8, 4, 4], [7, 3, 6, 4, 6]]","[[0, 4, 0, 0, 0], [4, 0, 0, 0, 4], [4, 4, 4, 4, 0], [4, 0, 4, 0, 4], [4, 4, 0, 4, 4]]","[7, 5, 6, 7, 5]",4,22,1,0.05,0.04866666666666667,0.0013333333333333333,[2],1,random,5,5,21854,4,149,145,attentional-mouselab,26,481369,2
mouselab,True,"[17, 15, 19, 10, 21, 1, 2, 7, 12, 8, 3, 4, 9, 14, 24, 21, 21, 17, 17, 17, 15, 15, 15, 12, 12, 12, 7, 7, 7, 2, 2, 2]","[[2, 3, 4, 6, 6], [6, 5, 7, 6, 3], [6, 5, 5, 5, 5], [4, 5, 6, 5, 6], [4, 4, 8, 6, 8]]","[[0, 3, 0, 3, 3], [0, 0, 0, 3, 3], [3, 0, 0, 0, 3], [0, 0, 0, 0, 3], [0, 1, 0, 0, 3]]","[3, 5, 8, 12, 2]",16,1,2,0.058,0.04733333333333334,0.010666666666666666,"[17, 15, 12, 7, 2]",5,random,5,5,56199,32,175,143,attentional-mouselab,4,306693,3
mouselab,True,"[11, 11, 11, 11, 6, 6, 6, 6, 15, 15, 15, 15, 10, 10, 10, 10, 0, 0, 0, 0]","[[6, 7, 4, 4, 5], [6, 2, 7, 7, 5], [7, 6, 4, 4, 2], [6, 7, 3, 3, 6], [5, 5, 3, 4, 7]]","[[0, 0, 4, 4, 0], [0, 0, 0, 4, 0], [0, 0, 4, 4, 0], [0, 0, 0, 4, 4], [0, 0, 4, 4, 4]]","[2, 8, 5, 9, 6]",10,2,0,0.06,0.05333333333333333,0.006666666666666667,"[11, 6, 15, 10, 0]",5,random,5,5,20717,20,179,159,attentional-mouselab,5,331118,3
mouselab,False,"[10, 10, 10, 10, 11, 11, 11, 11, 16, 16, 16, 16, 6, 6, 6, 6]","[[7, 4, 6, 5, 6], [6, 6, 7, 5, 5], [4, 7, 5, 2, 6], [4, 6, 6, 5, 3], [7, 4, 5, 3, 4]]","[[4, 0, 4, 0, 4], [0, 0, 4, 0, 0], [0, 0, 4, 0, 4], [4, 0, 4, 0, 4], [0, 0, 4, 0, 4]]","[4, 3, 10, 7, 6]",10,3,1,0.057,0.051666666666666666,0.005333333333333333,"[10, 11, 16, 6]",4,greedy,5,5,17847,16,170,154,attentional-mouselab,7,359699,3
mouselab,False,"[23, 23, 23, 23, 20, 20, 20, 20, 24, 24, 24, 24, 9, 9, 9, 9, 17, 17, 17, 17]","[[8, 4, 6, 4, 6], [6, 6, 7, 5, 5], [4, 4, 7, 4, 2], [7, 8, 4, 2, 6], [6, 6, 8, 5, 7]]","[[4, 4, 0, 0, 0], [4, 4, 0, 0, 0], [4, 0, 0, 4, 4], [4, 4, 0, 4, 0], [0, 0, 0, 0, 0]]","[3, 7, 6, 5, 9]",8,4,2,0.067,0.060333333333333336,0.006666666666666667,"[23, 20, 24, 9, 17]",5,random,5,5,31174,20,201,181,attentional-mouselab,8,393190,3
mouselab,False,"[17, 17, 17, 17, 16, 16, 16, 16, 15, 15, 15, 15, 11, 11, 11, 11, 10, 10, 10, 10]","[[6, 5, 2, 1, 6], [6, 6, 4, 6, 7], [5, 5, 5, 4, 7], [7, 7, 6, 5, 4], [2, 5, 5, 5, 8]]","[[4, 4, 4, 0, 0], [0, 4, 4, 0, 0], [0, 0, 4, 0, 0], [0, 0, 0, 0, 0], [0, 4, 4, 4, 4]]","[3, 2, 8, 15, 2]",22,5,0,0.06,0.05333333333333333,0.006666666666666667,"[17, 16, 15, 11, 10]",5,random,5,5,19556,20,179,159,attentional-mouselab,9,416000,3
mouselab,False,"[4, 4, 4, 4, 1, 1, 1, 1, 11, 11, 11, 11, 0, 0, 0, 0]","[[5, 7, 6, 2, 2], [5, 5, 3, 7, 3], [7, 9, 4, 5, 9], [5, 0, 5, 3, 7], [3, 6, 5, 4, 5]]","[[0, 0, 4, 4, 0], [4, 4, 4, 0, 0], [0, 0, 0, 4, 0], [4, 0, 4, 4, 0], [0, 0, 0, 4, 4]]","[13, 1, 8, 1, 7]",20,6,1,0.07,0.06466666666666668,0.005333333333333333,"[4, 1, 11, 0]",4,random,5,5,18003,16,210,194,attentional-mouselab,10,437534,3
mouselab,False,"[4, 4, 4, 4, 3, 3, 3, 3, 2, 2, 2, 2, 0, 0, 0, 0]","[[8, 6, 6, 7, 9], [5, 6, 3, 5, 4], [4, 3, 5, 7, 7], [4, 5, 6, 2, 7], [4, 6, 4, 6, 7]]","[[0, 0, 0, 0, 0], [4, 0, 4, 4, 4], [4, 0, 4, 4, 0], [0, 0, 0, 4, 0], [4, 0, 0, 4, 4]]","[17, 2, 5, 4, 2]",22,7,4,0.079,0.07366666666666667,0.005333333333333333,"[4, 3, 2, 0]",4,greedy,5,5,10355,16,238,222,attentional-mouselab,11,449467,3
mouselab,False,"[3, 3, 3, 3, 1, 1, 1, 1, 11, 11, 11, 11, 21, 21, 21, 21]","[[4, 6, 6, 3, 4], [2, 2, 4, 4, 4], [4, 4, 5, 8, 5], [6, 6, 9, 7, 5], [7, 4, 6, 4, 6]]","[[0, 0, 0, 0, 0], [0, 0, 4, 0, 4], [0, 0, 4, 4, 4], [0, 4, 0, 4, 4], [0, 0, 4, 4, 4]]","[11, 4, 7, 1, 7]",14,8,1,0.045,0.03966666666666666,0.005333333333333333,"[3, 1, 11, 21]",4,greedy,5,5,37648,16,136,120,attentional-mouselab,12,490786,3
mouselab,False,"[10, 10, 10, 10, 12, 12, 12, 12, 13, 13, 13, 13, 14, 14, 14, 14, 4, 4, 4, 4]","[[7, 7, 3, 8, 5], [7, 6, 5, 5, 6], [5, 4, 5, 8, 9], [3, 1, 6, 3, 8], [3, 4, 4, 5, 5]]","[[4, 0, 0, 4, 0], [4, 0, 4, 4, 0], [0, 0, 0, 0, 0], [4, 0, 4, 0, 4], [0, 0, 0, 4, 4]]","[10, 6, 12, 1, 1]",20,9,3,0.071,0.06433333333333333,0.006666666666666667,"[10, 12, 13, 14, 4]",5,greedy,5,5,12848,20,214,194,attentional-mouselab,13,505972,3
mouselab,False,"[7, 7, 7, 7, 12, 12, 12, 12]","[[4, 6, 7, 4, 5], [5, 5, 6, 6, 5], [6, 5, 7, 6, 5], [3, 2, 5, 6, 6], [4, 5, 6, 7, 7]]","[[4, 4, 4, 0, 4], [0, 0, 0, 0, 0], [4, 4, 0, 0, 4], [4, 4, 4, 0, 0], [4, 4, 4, 0, 0]]","[3, 18, 7, 1, 1]",26,10,2,0.063,0.060333333333333336,0.0026666666666666666,"[7, 12]",2,greedy,5,5,22794,8,189,181,attentional-mouselab,14,530410,3
mouselab,False,"[14, 14, 14, 14, 9, 9, 9, 9]","[[5, 6, 4, 4, 6], [4, 6, 3, 6, 4], [5, 5, 5, 5, 6], [4, 7, 4, 9, 7], [5, 5, 2, 3, 2]]","[[4, 0, 4, 4, 0], [4, 4, 0, 4, 0], [0, 4, 4, 4, 0], [4, 4, 0, 0, 0], [0, 0, 0, 4, 4]]","[1, 9, 11, 2, 7]",18,11,4,0.045,0.042333333333333334,0.0026666666666666666,"[14, 9]",2,random,5,5,10404,8,136,128,attentional-mouselab,15,541897,3
mouselab,False,"[15, 15, 15, 15, 17, 17, 17, 17, 14, 14, 14, 14]","[[6, 3, 6, 5, 6], [6, 2, 5, 2, 6], [6, 5, 3, 5, 6], [4, 6, 5, 5, 7], [6, 4, 6, 2, 4]]","[[4, 0, 4, 4, 4], [4, 0, 4, 4, 4], [0, 0, 0, 4, 0], [0, 0, 0, 0, 0], [4, 0, 4, 4, 0]]","[2, 5, 8, 12, 3]",16,12,4,0.062,0.057999999999999996,0.004,"[15, 17, 14]",3,greedy,5,5,11463,12,186,174,attentional-mouselab,16,554362,3
mouselab,False,"[15, 15, 15, 15, 10, 10, 10, 10, 0, 0, 0, 0]","[[6, 7, 10, 1, 5], [6, 3, 3, 4, 5], [4, 5, 4, 6, 3], [7, 4, 6, 5, 5], [7, 5, 6, 5, 5]]","[[0, 0, 4, 0, 4], [4, 0, 4, 4, 4], [0, 0, 4, 4, 4], [0, 0, 4, 0, 4], [0, 0, 4, 0, 0]]","[9, 2, 8, 9, 2]",16,13,0,0.058,0.054000000000000006,0.004,"[15, 10, 0]",3,greedy,5,5,11403,12,175,163,attentional-mouselab,17,566745,3
mouselab,False,"[10, 10, 10, 10, 5, 5, 5, 5, 7, 7, 7, 7, 12, 12, 12, 12, 12]","[[6, 3, 2, 5, 4], [5, 6, 5, 6, 8], [8, 4, 3, 4, 6], [2, 3, 7, 5, 5], [4, 4, 5, 2, 5]]","[[4, 4, 0, 4, 4], [0, 4, 0, 4, 4], [0, 0, 0, 0, 4], [0, 0, 0, 0, 0], [4, 0, 4, 0, 4]]","[2, 10, 10, 6, 2]",16,14,0,0.054,0.048666666666666664,0.005333333333333333,"[10, 5, 7, 12]",4,random,5,5,21232,16,162,146,attentional-mouselab,18,588895,3
mouselab,False,"[5, 5, 5, 5, 8, 8, 8, 8, 9, 9, 9, 9, 15, 15, 15, 15]","[[3, 4, 6, 3, 4], [8, 6, 4, 3, 3], [5, 6, 9, 5, 6], [5, 5, 3, 8, 6], [2, 6, 8, 7, 3]]","[[0, 4, 0, 4, 4], [0, 0, 0, 0, 0], [4, 0, 0, 0, 0], [0, 4, 0, 4, 4], [4, 4, 0, 4, 4]]","[2, 13, 2, 9, 4]",20,15,0,0.058,0.05266666666666667,0.005333333333333333,"[5, 8, 9, 15]",4,greedy,5,5,9787,16,173,157,attentional-mouselab,19,599571,3
mouselab,False,"[6, 6, 6, 6, 5, 5, 5, 5]","[[6, 5, 8, 6, 4], [6, 6, 4, 5, 3], [4, 6, 6, 10, 5], [6, 7, 4, 5, 4], [5, 2, 7, 5, 4]]","[[4, 4, 0, 4, 0], [0, 0, 4, 4, 0], [0, 0, 4, 4, 0], [0, 4, 4, 4, 0], [4, 0, 4, 4, 0]]","[1, 12, 3, 9, 5]",18,16,0,0.056,0.05333333333333334,0.0026666666666666666,"[6, 5]",2,greedy,5,5,7665,8,169,161,attentional-mouselab,20,608227,3
mouselab,False,"[4, 4, 4, 4, 3, 3, 3, 3]","[[5, 4, 7, 6, 4], [4, 2, 4, 7, 5], [3, 3, 7, 5, 5], [5, 5, 2, 6, 4], [3, 5, 4, 6, 5]]","[[0, 0, 0, 0, 0], [4, 4, 0, 4, 0], [0, 4, 0, 4, 4], [4, 4, 0, 4, 4], [0, 4, 0, 4, 4]]","[10, 2, 9, 5, 4]",14,17,2,0.056,0.05333333333333334,0.0026666666666666666,"[4, 3]",2,greedy,5,5,7360,8,167,159,attentional-mouselab,21,616475,3
mouselab,False,"[16, 16, 16, 16, 21, 21, 21, 21]","[[7, 5, 0, 5, 6], [4, 8, 5, 6, 4], [5, 5, 4, 5, 4], [4, 8, 2, 6, 6], [6, 6, 3, 5, 7]]","[[0, 0, 0, 4, 4], [4, 4, 4, 4, 4], [0, 0, 0, 4, 4], [0, 0, 0, 4, 4], [4, 0, 0, 4, 0]]","[2, 2, 4, 12, 10]",20,18,1,0.067,0.06433333333333334,0.0026666666666666666,"[16, 21]",2,random,5,5,9015,8,202,194,attentional-mouselab,22,626901,3
mouselab,False,"[16, 16, 16, 16, 19, 19, 19, 19, 21, 21, 21, 21]","[[5, 4, 6, 6, 6], [5, 4, 4, 4, 4], [6, 7, 6, 5, 7], [3, 4, 6, 4, 6], [4, 6, 6, 8, 4]]","[[4, 4, 0, 4, 4], [0, 4, 4, 0, 4], [0, 0, 0, 4, 0], [4, 0, 0, 4, 0], [0, 0, 4, 4, 0]]","[5, 2, 4, 10, 9]",14,19,4,0.054,0.05,0.004,"[16, 19, 21]",3,random,5,5,24571,12,162,150,attentional-mouselab,23,652916,3
mouselab,False,"[16, 16, 16, 16, 23, 23, 23, 23, 23]","[[5, 6, 1, 5, 8], [4, 4, 4, 9, 6], [5, 4, 8, 9, 6], [6, 5, 5, 6, 7], [4, 4, 7, 4, 7]]","[[4, 4, 4, 4, 4], [4, 0, 0, 4, 4], [4, 4, 4, 0, 0], [4, 0, 0, 0, 0], [0, 4, 0, 0, 0]]","[2, 2, 9, 12, 5]",18,20,3,0.067,0.06433333333333334,0.0026666666666666666,"[16, 23]",2,random,5,5,26747,8,201,193,attentional-mouselab,24,680998,3
mouselab,False,"[16, 16, 16, 16, 15, 15, 15, 15]","[[6, 4, 8, 7, 6], [4, 7, 7, 6, 6], [4, 5, 7, 4, 9], [4, 4, 6, 3, 2], [7, 6, 2, 4, 7]]","[[0, 0, 4, 0, 4], [4, 0, 0, 4, 4], [4, 0, 4, 4, 0], [0, 0, 4, 0, 0], [4, 4, 0, 4, 4]]","[3, 7, 4, 9, 7]",10,21,1,0.053,0.050333333333333334,0.0026666666666666666,"[16, 15]",2,random,5,5,9612,8,159,151,attentional-mouselab,25,692243,3
mouselab,False,"[8, 8, 8, 8, 9, 9, 9, 9, 5, 5, 5, 5, 10, 10, 10, 10]","[[6, 4, 8, 3, 3], [5, 4, 3, 4, 6], [4, 3, 7, 3, 4], [2, 4, 5, 3, 3], [6, 4, 2, 7, 6]]","[[0, 0, 4, 0, 4], [0, 4, 0, 0, 0], [0, 0, 4, 4, 0], [0, 4, 4, 4, 4], [0, 4, 4, 0, 0]]","[2, 14, 8, 4, 2]",20,22,4,0.049,0.043666666666666666,0.005333333333333333,"[8, 9, 5, 10]",4,random,5,5,20306,16,146,130,attentional-mouselab,26,713833,3
mouselab,True,"[11, 11, 13, 18, 7, 2, 6, 5, 10, 20, 16, 21, 22, 23, 24, 19, 2, 7, 6, 5, 10, 16, 21, 20, 22, 23, 18, 13, 19, 24, 2, 7, 6, 5, 10, 11, 16, 20, 21, 22, 23, 18, 13, 19, 24, 24, 19, 18, 13, 23, 22, 7, 2, 6, 11, 16, 21, 20, 10, 5, 7]","[[4, 3, 3, 5, 8], [5, 3, 7, 4, 6], [6, 4, 4, 5, 3], [6, 8, 7, 6, 4], [5, 8, 7, 6, 4]]","[[0, 0, 0, 0, 0], [0, 0, 0, 0, 0], [0, 0, 0, 0, 0], [0, 0, 0, 0, 0], [0, 0, 0, 0, 0]]","[7, 6, 9, 4, 4]",8,1,3,0.051,0.030999999999999996,0.02,"[24, 19, 18, 13, 23, 22, 7, 2, 6, 11, 16, 21, 20, 10, 5]",15,random,5,5,47674,60,152,92,attentional-mouselab,4,111645,4
mouselab,True,"[12, 12, 12, 12, 12, 7, 7, 7, 7]","[[5, 3, 4, 3, 3], [3, 3, 5, 4, 7], [5, 3, 7, 3, 4], [6, 4, 4, 4, 6], [4, 1, 3, 6, 8]]","[[4, 0, 0, 4, 4], [4, 0, 0, 4, 0], [4, 0, 0, 0, 4], [0, 4, 0, 4, 4], [4, 0, 0, 4, 4]]","[8, 2, 2, 9, 9]",16,2,2,0.04,0.037333333333333336,0.0026666666666666666,"[12, 7]",2,random,5,5,6608,8,119,111,attentional-mouselab,5,119808,4
mouselab,False,[],"[[5, 6, 4, 5, 7], [3, 4, 4, 7, 5], [3, 4, 1, 7, 2], [5, 5, 4, 6, 4], [3, 5, 6, 3, 6]]","[[4, 0, 0, 4, 0], [4, 4, 0, 4, 4], [4, 4, 0, 4, 4], [4, 4, 0, 0, 4], [0, 4, 0, 4, 0]]","[10, 5, 8, 4, 3]",12,3,2,0.034,0.034,0.0,[],0,greedy,5,5,2790,0,102,102,attentional-mouselab,7,125977,4
mouselab,False,[],"[[6, 5, 5, 5, 8], [7, 2, 2, 4, 5], [5, 7, 3, 4, 6], [10, 8, 4, 8, 8], [5, 9, 6, 2, 3]]","[[4, 4, 0, 0, 4], [0, 0, 4, 0, 4], [4, 0, 0, 4, 0], [4, 0, 4, 4, 4], [0, 4, 4, 4, 4]]","[10, 8, 6, 3, 3]",12,4,1,0.053,0.053,0.0,[],0,random,5,5,4482,0,159,159,attentional-mouselab,8,132581,4
mouselab,False,[],"[[5, 6, 0, 3, 5], [5, 6, 7, 5, 5], [4, 3, 5, 4, 6], [5, 6, 4, 4, 5], [6, 6, 3, 7, 3]]","[[0, 4, 0, 4, 4], [4, 4, 4, 0, 4], [4, 0, 4, 0, 4], [4, 0, 0, 0, 4], [4, 4, 0, 4, 0]]","[2, 3, 9, 12, 4]",18,5,3,0.044,0.044,0.0,[],0,random,5,5,1818,0,133,133,attentional-mouselab,9,135728,4
mouselab,False,[],"[[3, 5, 2, 5, 3], [5, 8, 4, 5, 4], [0, 3, 6, 5, 5], [6, 4, 5, 5, 7], [5, 5, 7, 6, 6]]","[[4, 0, 4, 0, 0], [0, 4, 4, 4, 4], [4, 0, 4, 4, 4], [0, 0, 4, 4, 4], [0, 0, 4, 4, 0]]","[5, 8, 4, 10, 3]",12,6,2,0.046,0.046,0.0,[],0,random,5,5,1490,0,137,137,attentional-mouselab,10,138498,4
mouselab,False,[],"[[5, 6, 3, 4, 4], [5, 3, 3, 8, 6], [3, 8, 7, 3, 9], [4, 4, 4, 5, 7], [6, 6, 4, 7, 6]]","[[4, 4, 4, 0, 0], [4, 4, 0, 4, 0], [0, 4, 4, 4, 0], [4, 4, 4, 4, 0], [0, 4, 0, 4, 0]]","[8, 3, 3, 6, 10]",12,7,4,0.06,0.06,0.0,[],0,greedy,5,5,1843,0,179,179,attentional-mouselab,11,141208,4
mouselab,False,[],"[[7, 5, 4, 5, 6], [6, 6, 5, 6, 8], [5, 6, 5, 6, 3], [7, 5, 7, 6, 5], [4, 8, 4, 4, 5]]","[[0, 4, 4, 4, 4], [0, 4, 4, 4, 4], [0, 4, 0, 4, 4], [0, 4, 0, 0, 4], [0, 0, 0, 4, 4]]","[4, 14, 5, 4, 3]",16,8,0,0.059,0.059,0.0,[],0,greedy,5,5,1221,0,177,177,attentional-mouselab,12,144057,4
mouselab,False,[],"[[7, 3, 6, 4, 3], [5, 3, 3, 5, 8], [8, 5, 7, 7, 7], [2, 4, 6, 5, 6], [7, 4, 3, 6, 6]]","[[4, 4, 4, 4, 0], [0, 4, 4, 0, 0], [4, 4, 4, 0, 0], [4, 0, 4, 4, 0], [0, 4, 4, 4, 0]]","[1, 9, 5, 9, 6]",12,9,4,0.067,0.067,0.0,[],0,greedy,5,5,1240,0,200,200,attentional-mouselab,13,146550,4
mouselab,False,[],"[[6, 6, 5, 4, 7], [7, 4, 4, 6, 5], [4, 5, 5, 4, 4], [5, 6, 8, 4, 4], [7, 3, 6, 4, 6]]","[[4, 4, 0, 0, 0], [4, 0, 0, 0, 4], [4, 4, 0, 4, 4], [0, 4, 0, 4, 4], [4, 4, 0, 4, 4]]","[6, 2, 4, 5, 13]",14,10,4,0.055,0.055,0.0,[],0,greedy,5,5,2281,0,166,166,attentional-mouselab,14,150086,4
mouselab,False,[],"[[7, 5, 6, 8, 1], [6, 5, 7, 6, 4], [2, 3, 4, 7, 4], [5, 4, 0, 6, 9], [4, 5, 4, 4, 4]]","[[4, 0, 4, 0, 4], [0, 4, 4, 4, 4], [0, 4, 4, 4, 4], [0, 0, 0, 0, 0], [4, 4, 4, 0, 4]]","[2, 9, 7, 5, 7]",10,11,3,0.059,0.059,0.0,[],0,random,5,5,986,0,177,177,attentional-mouselab,15,152151,4
mouselab,False,[],"[[4, 8, 7, 5, 5], [5, 7, 4, 0, 4], [6, 5, 6, 6, 3], [4, 5, 8, 7, 6], [4, 5, 7, 7, 6]]","[[4, 4, 4, 0, 4], [4, 4, 0, 0, 4], [4, 4, 4, 0, 4], [0, 0, 4, 0, 0], [0, 4, 4, 0, 4]]","[5, 5, 13, 6, 1]",14,12,1,0.058,0.058,0.0,[],0,greedy,5,5,3017,0,175,175,attentional-mouselab,16,156269,4
mouselab,False,[],"[[2, 2, 7, 5, 6], [3, 2, 4, 2, 5], [3, 5, 6, 3, 6], [6, 4, 4, 6, 5], [4, 2, 3, 5, 3]]","[[0, 4, 0, 4, 0], [4, 0, 0, 4, 4], [4, 4, 0, 4, 4], [4, 4, 0, 4, 0], [4, 0, 0, 4, 4]]","[1, 4, 2, 16, 7]",22,13,2,0.04,0.04,0.0,[],0,greedy,5,5,1407,0,120,120,attentional-mouselab,17,158600,4
mouselab,False,[],"[[5, 5, 7, 4, 7], [6, 4, 6, 5, 6], [5, 8, 6, 5, 6], [7, 4, 4, 6, 6], [3, 5, 3, 6, 3]]","[[4, 0, 4, 0, 0], [4, 4, 4, 4, 4], [4, 0, 0, 4, 4], [0, 0, 0, 0, 0], [4, 4, 4, 4, 4]]","[8, 4, 4, 9, 5]",10,14,1,0.05,0.05,0.0,[],0,random,5,5,1408,0,149,149,attentional-mouselab,18,160905,4
mouselab,False,[],"[[5, 6, 5, 4, 9], [7, 4, 8, 8, 5], [2, 7, 6, 5, 6], [5, 6, 9, 5, 4], [5, 5, 2, 6, 8]]","[[0, 0, 4, 0, 0], [0, 4, 4, 4, 4], [0, 4, 4, 0, 4], [0, 0, 4, 4, 4], [0, 4, 4, 4, 4]]","[7, 6, 10, 1, 6]",10,15,4,0.068,0.068,0.0,[],0,greedy,5,5,2623,0,205,205,attentional-mouselab,19,164606,4
mouselab,False,[],"[[6, 6, 6, 4, 3], [1, 4, 4, 4, 4], [7, 5, 4, 5, 7], [6, 2, 3, 6, 8], [5, 5, 6, 2, 8]]","[[4, 4, 4, 4, 0], [4, 0, 0, 4, 4], [4, 0, 4, 4, 0], [0, 0, 4, 4, 4], [0, 4, 4, 0, 0]]","[5, 3, 14, 6, 2]",16,16,4,0.063,0.063,0.0,[],0,random,5,5,3495,0,189,189,attentional-mouselab,20,169184,4
mouselab,False,[],"[[4, 5, 4, 4, 4], [5, 3, 5, 8, 5], [7, 3, 3, 5, 3], [5, 8, 4, 5, 6], [6, 2, 3, 8, 7]]","[[0, 4, 0, 0, 4], [4, 4, 0, 4, 4], [0, 4, 0, 4, 4], [4, 4, 0, 0, 4], [0, 4, 0, 4, 4]]","[1, 16, 3, 4, 6]",20,17,0,0.054,0.054,0.0,[],0,greedy,5,5,1336,0,161,161,attentional-mouselab,21,171777,4
mouselab,False,[],"[[3, 2, 7, 4, 6], [5, 6, 5, 4, 7], [8, 3, 7, 2, 6], [6, 7, 5, 4, 7], [3, 6, 9, 5, 1]]","[[0, 0, 0, 0, 4], [4, 0, 4, 4, 4], [0, 4, 0, 4, 4], [0, 4, 0, 4, 4], [4, 4, 4, 0, 4]]","[4, 3, 7, 9, 7]",10,18,0,0.053,0.053,0.0,[],0,random,5,5,1569,0,158,158,attentional-mouselab,22,174447,4
mouselab,False,[],"[[4, 5, 7, 3, 5], [5, 7, 5, 5, 3], [5, 8, 2, 4, 3], [4, 5, 3, 7, 4], [2, 6, 5, 5, 5]]","[[0, 4, 4, 0, 0], [0, 0, 4, 0, 4], [4, 0, 4, 4, 0], [4, 4, 4, 4, 0], [4, 0, 4, 4, 4]]","[4, 9, 8, 1, 8]",14,19,1,0.067,0.067,0.0,[],0,random,5,5,1189,0,200,200,attentional-mouselab,23,176908,4
mouselab,False,[],"[[6, 5, 4, 3, 8], [8, 3, 4, 2, 3], [6, 6, 6, 6, 5], [4, 3, 2, 4, 5], [3, 5, 3, 4, 4]]","[[4, 0, 0, 0, 4], [4, 4, 4, 0, 0], [0, 4, 4, 0, 4], [4, 0, 4, 0, 4], [4, 4, 4, 0, 4]]","[2, 8, 4, 4, 12]",16,20,0,0.051,0.051,0.0,[],0,greedy,5,5,2660,0,152,152,attentional-mouselab,24,180630,4
mouselab,False,[],"[[6, 5, 8, 6, 4], [6, 6, 4, 5, 3], [4, 6, 6, 10, 5], [6, 7, 4, 5, 4], [5, 2, 7, 5, 4]]","[[4, 4, 0, 4, 4], [4, 0, 0, 0, 4], [0, 0, 4, 4, 0], [0, 0, 4, 4, 4], [4, 0, 4, 4, 4]]","[6, 5, 5, 12, 2]",12,21,0,0.056,0.056,0.0,[],0,random,5,5,2385,0,168,168,attentional-mouselab,25,183908,4
mouselab,False,[],"[[4, 3, 3, 1, 5], [5, 6, 5, 5, 5], [2, 1, 2, 4, 8], [3, 5, 4, 7, 6], [5, 7, 3, 4, 7]]","[[0, 4, 0, 0, 4], [4, 0, 4, 0, 4], [0, 0, 4, 0, 4], [0, 4, 4, 4, 4], [4, 4, 0, 4, 4]]","[2, 9, 9, 1, 9]",18,22,0,0.04,0.04,0.0,[],0,random,5,5,1181,0,119,119,attentional-mouselab,26,186547,4
mouselab,True,"[20, 20, 20, 20]","[[6, 5, 4, 7, 6], [3, 6, 4, 7, 8], [5, 5, 6, 5, 5], [4, 6, 5, 3, 5], [4, 3, 6, 4, 7]]","[[0, 4, 4, 0, 0], [4, 4, 4, 4, 4], [0, 0, 0, 0, 4], [4, 4, 4, 4, 0], [0, 4, 4, 0, 0]]","[3, 2, 3, 4, 18]",24,1,0,0.042,0.04066666666666667,0.0013333333333333333,[20],1,random,5,5,23572,4,127,123,attentional-mouselab,4,137858,5
mouselab,True,[],"[[3, 6, 9, 4, 3], [8, 6, 5, 5, 6], [3, 4, 4, 4, 4], [5, 10, 5, 7, 5], [5, 5, 6, 5, 7]]","[[0, 0, 0, 4, 4], [0, 4, 4, 4, 0], [4, 4, 4, 4, 4], [4, 0, 0, 4, 0], [0, 0, 4, 4, 4]]","[3, 9, 7, 1, 10]",16,2,1,0.053,0.053,0.0,[],0,random,5,5,5518,0,160,160,attentional-mouselab,5,147999,5
mouselab,False,"[18, 18, 18, 18]","[[3, 4, 7, 8, 3], [2, 4, 5, 8, 2], [8, 2, 9, 6, 7], [3, 6, 5, 4, 8], [7, 7, 4, 10, 2]]","[[4, 0, 4, 4, 0], [4, 0, 0, 4, 0], [4, 4, 0, 0, 4], [0, 4, 0, 0, 4], [0, 4, 4, 4, 4]]","[1, 8, 8, 11, 2]",18,3,1,0.044,0.042666666666666665,0.0013333333333333333,[18],1,random,5,5,13469,4,132,128,attentional-mouselab,7,169260,5
mouselab,False,"[9, 9, 9, 9]","[[3, 3, 4, 5, 7], [6, 3, 5, 7, 4], [6, 8, 7, 3, 5], [5, 7, 4, 5, 6], [3, 6, 3, 3, 7]]","[[4, 4, 0, 0, 0], [0, 4, 0, 4, 0], [4, 4, 0, 4, 0], [4, 4, 0, 4, 4], [4, 0, 0, 4, 4]]","[1, 10, 11, 7, 1]",20,4,4,0.05,0.04866666666666667,0.0013333333333333333,[9],1,greedy,5,5,14730,4,151,147,attentional-mouselab,8,186278,5
mouselab,False,[],"[[2, 4, 4, 6, 7], [5, 5, 3, 6, 3], [6, 3, 6, 6, 6], [6, 3, 3, 3, 4], [8, 3, 5, 6, 6]]","[[0, 4, 4, 0, 4], [0, 4, 4, 0, 4], [0, 0, 4, 4, 0], [0, 4, 4, 0, 4], [0, 4, 4, 4, 4]]","[10, 3, 2, 9, 6]",14,5,3,0.051,0.051,0.0,[],0,greedy,5,5,8108,0,153,153,attentional-mouselab,9,197042,5
mouselab,False,"[3, 3, 3, 3, 0, 0, 0, 0]","[[5, 5, 5, 2, 5], [6, 4, 6, 9, 8], [4, 6, 6, 5, 5], [3, 4, 0, 3, 4], [5, 5, 9, 3, 2]]","[[0, 4, 0, 0, 4], [4, 0, 0, 0, 4], [0, 4, 4, 4, 0], [4, 4, 4, 4, 0], [4, 0, 0, 4, 0]]","[15, 6, 4, 2, 3]",18,6,0,0.049,0.04633333333333334,0.0026666666666666666,"[3, 0]",2,random,5,5,22437,8,148,140,attentional-mouselab,10,223093,5
mouselab,False,"[12, 12, 12, 12]","[[6, 5, 8, 3, 6], [2, 3, 8, 5, 6], [5, 6, 3, 7, 4], [8, 5, 7, 4, 7], [6, 4, 7, 5, 8]]","[[4, 0, 4, 0, 0], [0, 0, 0, 4, 4], [4, 4, 0, 0, 4], [4, 4, 0, 4, 4], [4, 4, 0, 4, 0]]","[1, 11, 9, 3, 6]",16,7,2,0.062,0.06066666666666667,0.0013333333333333333,[12],1,random,5,5,14136,4,186,182,attentional-mouselab,11,241838,5
mouselab,False,[],"[[2, 7, 7, 7, 7], [2, 3, 1, 4, 5], [8, 5, 4, 7, 4], [4, 6, 4, 3, 2], [7, 4, 7, 5, 5]]","[[4, 4, 0, 4, 0], [4, 4, 4, 4, 0], [0, 0, 4, 0, 0], [4, 4, 4, 4, 0], [4, 0, 4, 4, 0]]","[7, 7, 9, 4, 3]",10,8,3,0.056,0.056,0.0,[],0,greedy,5,5,11035,0,167,167,attentional-mouselab,12,257437,5
mouselab,False,"[16, 16, 16, 16]","[[4, 5, 4, 5, 5], [5, 5, 9, 6, 7], [5, 8, 6, 6, 5], [4, 6, 4, 9, 6], [4, 8, 3, 5, 5]]","[[0, 4, 0, 4, 0], [0, 4, 4, 4, 0], [4, 0, 4, 0, 4], [4, 0, 4, 4, 4], [4, 0, 0, 0, 4]]","[7, 2, 2, 14, 5]",18,9,1,0.062,0.06066666666666667,0.0013333333333333333,[16],1,random,5,5,12052,4,185,181,attentional-mouselab,13,272175,5
mouselab,False,"[2, 2, 2, 2]","[[4, 5, 5, 5, 8], [7, 4, 6, 3, 8], [3, 3, 7, 4, 5], [5, 4, 5, 4, 5], [3, 7, 6, 7, 9]]","[[0, 4, 0, 4, 0], [0, 4, 4, 4, 4], [0, 0, 4, 0, 0], [4, 4, 0, 4, 4], [4, 4, 4, 0, 0]]","[16, 7, 3, 2, 2]",22,10,4,0.076,0.07466666666666666,0.0013333333333333333,[2],1,random,5,5,16682,4,227,223,attentional-mouselab,14,290825,5
mouselab,False,"[20, 20, 20, 20]","[[4, 5, 6, 3, 2], [6, 6, 2, 2, 10], [6, 3, 4, 2, 2], [5, 6, 6, 3, 3], [7, 5, 5, 4, 7]]","[[4, 0, 4, 0, 0], [0, 4, 4, 0, 0], [4, 4, 4, 0, 4], [4, 4, 4, 0, 4], [0, 4, 4, 0, 0]]","[1, 4, 8, 4, 13]",18,11,0,0.062,0.06066666666666667,0.0013333333333333333,[20],1,greedy,5,5,7831,4,187,183,attentional-mouselab,15,301581,5
mouselab,False,"[0, 0, 0, 0, 4, 4, 4, 4]","[[2, 4, 6, 4, 2], [6, 3, 7, 3, 7], [3, 4, 7, 7, 2], [4, 4, 5, 2, 6], [6, 6, 4, 4, 7]]","[[0, 4, 4, 0, 0], [4, 4, 0, 0, 4], [4, 0, 4, 0, 4], [4, 4, 0, 0, 4], [0, 4, 4, 0, 0]]","[14, 3, 4, 7, 2]",18,12,2,0.059,0.05633333333333333,0.0026666666666666666,"[0, 4]",2,greedy,5,5,13714,8,176,168,attentional-mouselab,16,317238,5
mouselab,False,"[18, 18, 18, 18, 18]","[[6, 8, 3, 4, 4], [5, 4, 6, 8, 3], [3, 2, 5, 6, 7], [4, 5, 2, 5, 6], [6, 6, 5, 3, 6]]","[[4, 4, 0, 4, 0], [0, 4, 0, 0, 4], [0, 4, 4, 4, 0], [4, 4, 4, 0, 4], [0, 0, 4, 0, 4]]","[1, 6, 6, 16, 1]",20,13,1,0.043,0.041666666666666664,0.0013333333333333333,[18],1,random,5,5,14435,4,130,126,attentional-mouselab,17,333551,5
mouselab,False,[],"[[4, 5, 5, 5, 6], [8, 4, 6, 7, 4], [4, 3, 4, 6, 6], [7, 5, 5, 5, 4], [4, 4, 4, 4, 4]]","[[0, 4, 4, 0, 4], [4, 4, 4, 4, 4], [0, 0, 0, 0, 0], [0, 0, 4, 4, 4], [4, 0, 4, 4, 4]]","[9, 5, 4, 8, 4]",10,14,4,0.049,0.049,0.0,[],0,random,5,5,12542,0,146,146,attentional-mouselab,18,351569,5
mouselab,False,[],"[[4, 6, 3, 6, 4], [6, 7, 6, 3, 6], [7, 5, 5, 8, 7], [4, 9, 5, 6, 4], [7, 4, 6, 6, 1]]","[[4, 0, 0, 4, 4], [4, 0, 4, 0, 0], [4, 4, 4, 4, 4], [4, 0, 0, 0, 4], [4, 4, 0, 0, 4]]","[1, 4, 11, 10, 4]",18,15,1,0.065,0.065,0.0,[],0,random,5,5,4130,0,195,195,attentional-mouselab,19,357540,5
mouselab,False,[],"[[5, 6, 4, 5, 7], [3, 4, 4, 7, 5], [3, 4, 1, 7, 2], [5, 5, 4, 6, 4], [3, 5, 6, 3, 6]]","[[4, 0, 0, 4, 0], [4, 4, 0, 4, 4], [4, 4, 0, 4, 4], [4, 4, 0, 0, 4], [0, 4, 0, 4, 0]]","[9, 8, 8, 2, 3]",14,16,4,0.048,0.048,0.0,[],0,greedy,5,5,6214,0,145,145,attentional-mouselab,20,365655,5
mouselab,False,"[11, 11, 11, 11]","[[5, 7, 7, 7, 5], [4, 7, 4, 6, 5], [6, 7, 7, 4, 4], [5, 5, 5, 9, 7], [4, 7, 4, 5, 6]]","[[4, 4, 0, 0, 0], [4, 4, 0, 4, 4], [4, 0, 0, 4, 0], [4, 4, 0, 4, 0], [4, 4, 0, 4, 0]]","[5, 2, 19, 1, 3]",26,17,1,0.069,0.06766666666666667,0.0013333333333333333,[11],1,greedy,5,5,16456,4,208,204,attentional-mouselab,21,384591,5
mouselab,False,"[4, 4, 4, 4]","[[3, 8, 3, 5, 5], [5, 5, 5, 7, 7], [3, 7, 4, 6, 5], [3, 4, 6, 6, 7], [4, 3, 7, 5, 6]]","[[4, 0, 0, 4, 0], [4, 4, 0, 4, 0], [4, 4, 0, 4, 4], [4, 0, 0, 4, 0], [4, 4, 0, 4, 0]]","[8, 9, 2, 7, 4]",12,18,4,0.062,0.06066666666666667,0.0013333333333333333,[4],1,greedy,5,5,9707,4,186,182,attentional-mouselab,22,396415,5
mouselab,False,"[9, 9, 9, 9, 9]","[[4, 1, 5, 5, 4], [5, 3, 7, 7, 5], [4, 3, 4, 3, 6], [4, 6, 4, 2, 5], [3, 6, 5, 2, 5]]","[[0, 0, 4, 4, 0], [4, 0, 4, 4, 0], [4, 0, 4, 0, 4], [4, 0, 4, 4, 4], [0, 0, 4, 0, 4]]","[4, 10, 4, 2, 10]",16,19,4,0.05,0.04866666666666667,0.0013333333333333333,[9],1,greedy,5,5,17547,4,150,146,attentional-mouselab,23,415922,5
mouselab,False,"[4, 4, 4, 4]","[[6, 7, 3, 5, 7], [3, 5, 6, 3, 6], [4, 6, 1, 5, 4], [2, 4, 6, 7, 1], [7, 5, 7, 4, 6]]","[[0, 4, 0, 0, 0], [4, 0, 0, 4, 0], [4, 4, 0, 4, 0], [4, 0, 4, 4, 4], [4, 4, 4, 0, 4]]","[10, 8, 6, 3, 3]",12,20,4,0.054,0.05266666666666667,0.0013333333333333333,[4],1,random,5,5,10070,4,163,159,attentional-mouselab,24,427581,5
mouselab,False,[],"[[6, 4, 6, 7, 5], [5, 4, 7, 6, 1], [6, 4, 3, 6, 5], [9, 4, 5, 3, 4], [6, 5, 3, 3, 6]]","[[4, 4, 0, 0, 4], [4, 4, 0, 0, 0], [4, 4, 4, 0, 4], [4, 4, 4, 0, 4], [0, 0, 4, 0, 4]]","[1, 2, 9, 6, 12]",18,21,2,0.038,0.038,0.0,[],0,greedy,5,5,6510,0,113,113,attentional-mouselab,25,435651,5
mouselab,False,[],"[[9, 5, 6, 3, 5], [3, 4, 6, 4, 4], [3, 4, 4, 6, 4], [5, 3, 4, 5, 6], [7, 7, 6, 3, 6]]","[[0, 4, 0, 4, 4], [4, 0, 4, 4, 4], [4, 0, 4, 0, 0], [0, 0, 4, 4, 0], [4, 4, 0, 4, 4]]","[10, 3, 11, 2, 4]",18,22,3,0.043,0.043,0.0,[],0,random,5,5,4004,0,130,130,attentional-mouselab,26,441185,5
mouselab,True,"[1, 1, 1, 1, 3, 3, 3, 3, 23, 23, 23, 23, 20, 20, 20, 20]","[[6, 5, 4, 6, 3], [6, 5, 5, 5, 4], [3, 8, 1, 9, 5], [1, 6, 9, 3, 9], [6, 6, 3, 5, 6]]","[[0, 0, 0, 0, 0], [4, 4, 0, 4, 4], [0, 0, 4, 0, 0], [4, 0, 4, 4, 0], [0, 4, 4, 0, 4]]","[16, 4, 1, 1, 8]",24,1,0,0.057,0.051666666666666666,0.005333333333333333,"[1, 3, 23, 20]",4,random,5,5,48176,16,172,156,attentional-mouselab,4,223920,6
mouselab,True,"[15, 15, 15, 15, 16, 16, 16, 16, 18, 18, 18, 18]","[[6, 4, 4, 6, 7], [3, 6, 8, 6, 3], [2, 5, 5, 4, 8], [3, 5, 4, 5, 6], [6, 7, 4, 4, 4]]","[[4, 4, 0, 4, 4], [0, 4, 0, 4, 4], [0, 0, 0, 4, 0], [0, 0, 0, 0, 0], [4, 0, 4, 4, 4]]","[2, 1, 10, 15, 2]",26,2,4,0.065,0.061,0.004,"[15, 16, 18]",3,random,5,5,15064,12,195,183,attentional-mouselab,5,244275,6
mouselab,False,[15],"[[9, 4, 2, 3, 4], [8, 5, 5, 3, 6], [6, 5, 4, 4, 6], [4, 8, 4, 4, 5], [5, 2, 5, 3, 4]]","[[4, 0, 0, 4, 4], [4, 0, 4, 4, 4], [4, 0, 4, 0, 4], [3, 0, 4, 4, 4], [4, 0, 0, 0, 0]]","[4, 7, 7, 9, 3]",10,3,1,0.055,0.05466666666666667,0.0003333333333333333,[],0,greedy,5,5,8624,1,164,163,attentional-mouselab,7,260639,6
mouselab,False,[],"[[4, 7, 5, 4, 7], [8, 6, 5, 7, 4], [7, 3, 6, 5, 3], [7, 4, 7, 4, 6], [3, 5, 5, 8, 8]]","[[0, 0, 0, 4, 4], [0, 0, 0, 4, 4], [0, 4, 0, 4, 4], [4, 4, 0, 4, 4], [0, 4, 4, 4, 4]]","[6, 4, 2, 10, 8]",12,4,2,0.057,0.057,0.0,[],0,random,5,5,5976,0,172,172,attentional-mouselab,8,268775,6
mouselab,False,[],"[[3, 5, 6, 4, 8], [7, 5, 5, 3, 4], [7, 4, 6, 6, 5], [4, 6, 5, 5, 4], [7, 7, 2, 9, 8]]","[[4, 0, 0, 4, 0], [4, 0, 4, 0, 0], [4, 0, 4, 4, 4], [0, 0, 4, 4, 4], [4, 0, 4, 4, 4]]","[2, 3, 1, 3, 21]",30,5,1,0.065,0.065,0.0,[],0,greedy,5,5,7563,0,194,194,attentional-mouselab,9,277845,6
mouselab,False,"[15, 15, 15, 15, 17, 17, 17, 17, 19, 19, 19, 19]","[[6, 5, 4, 3, 8], [8, 3, 4, 2, 3], [6, 6, 6, 6, 5], [4, 3, 2, 4, 5], [3, 5, 3, 4, 4]]","[[4, 0, 0, 4, 4], [4, 4, 4, 0, 0], [0, 4, 4, 4, 4], [0, 0, 0, 0, 0], [4, 4, 0, 0, 0]]","[3, 3, 2, 12, 10]",20,6,4,0.048,0.044,0.004,"[15, 17, 19]",3,random,5,5,13318,12,143,131,attentional-mouselab,10,293085,6
mouselab,False,[],"[[8, 4, 3, 8, 2], [4, 8, 6, 6, 7], [7, 4, 9, 2, 1], [4, 6, 4, 3, 3], [6, 2, 4, 4, 5]]","[[4, 0, 0, 0, 0], [4, 4, 0, 4, 4], [4, 0, 4, 0, 4], [0, 4, 4, 4, 4], [0, 0, 4, 4, 4]]","[13, 9, 3, 2, 3]",20,7,3,0.061,0.061,0.0,[],0,random,5,5,3429,0,182,182,attentional-mouselab,11,298050,6
mouselab,False,[],"[[5, 4, 3, 7, 5], [7, 6, 7, 5, 4], [6, 7, 4, 6, 6], [6, 7, 4, 6, 5], [7, 6, 6, 5, 4]]","[[0, 4, 4, 4, 0], [4, 4, 4, 4, 4], [0, 0, 4, 4, 4], [4, 4, 0, 0, 0], [4, 4, 0, 0, 0]]","[2, 5, 12, 5, 6]",12,8,1,0.064,0.064,0.0,[],0,random,5,5,2935,0,193,193,attentional-mouselab,12,302466,6
mouselab,False,[],"[[7, 5, 6, 4, 6], [4, 2, 6, 4, 7], [2, 8, 3, 5, 6], [4, 5, 5, 4, 3], [5, 0, 8, 3, 5]]","[[0, 4, 0, 4, 0], [4, 4, 0, 4, 0], [4, 4, 4, 0, 4], [4, 4, 0, 4, 4], [0, 0, 4, 4, 0]]","[10, 3, 10, 1, 6]",16,9,0,0.045,0.045,0.0,[],0,random,5,5,8499,0,136,136,attentional-mouselab,13,312605,6
mouselab,False,[],"[[2, 3, 6, 7, 5], [7, 6, 6, 6, 5], [4, 3, 4, 7, 3], [6, 1, 5, 2, 4], [6, 9, 5, 8, 5]]","[[0, 0, 0, 4, 4], [4, 0, 4, 0, 4], [4, 0, 4, 4, 4], [4, 0, 0, 4, 4], [4, 0, 4, 4, 0]]","[4, 6, 5, 5, 10]",8,10,1,0.053,0.053,0.0,[],0,greedy,5,5,2888,0,158,158,attentional-mouselab,14,316696,6
mouselab,False,[],"[[4, 8, 5, 1, 3], [4, 6, 6, 8, 4], [4, 6, 7, 7, 4], [2, 6, 4, 6, 9], [5, 4, 7, 2, 6]]","[[4, 4, 4, 0, 4], [0, 4, 4, 0, 4], [0, 4, 0, 0, 4], [4, 4, 4, 0, 4], [4, 0, 0, 0, 4]]","[6, 7, 5, 5, 7]",4,11,3,0.047,0.047,0.0,[],0,greedy,5,5,3779,0,141,141,attentional-mouselab,15,322000,6
mouselab,False,"[1, 1, 1, 1, 0, 0, 0, 0, 4, 4, 4, 4]","[[2, 4, 4, 3, 4], [3, 4, 4, 6, 2], [6, 5, 7, 4, 4], [4, 2, 6, 6, 5], [6, 7, 5, 7, 4]]","[[0, 0, 0, 0, 0], [0, 4, 0, 4, 4], [4, 4, 0, 0, 4], [4, 4, 0, 0, 4], [4, 4, 0, 4, 0]]","[16, 3, 2, 8, 1]",24,12,2,0.048,0.044,0.004,"[1, 0, 4]",3,greedy,5,5,12785,12,143,131,attentional-mouselab,16,336996,6
mouselab,False,[],"[[5, 5, 3, 5, 6], [5, 5, 6, 9, 3], [3, 5, 9, 6, 6], [3, 5, 3, 6, 7], [7, 5, 7, 4, 4]]","[[4, 0, 0, 4, 0], [4, 0, 0, 0, 4], [4, 4, 0, 4, 4], [4, 4, 0, 4, 4], [0, 4, 0, 4, 4]]","[5, 1, 15, 7, 2]",20,13,2,0.064,0.064,0.0,[],0,greedy,5,5,3299,0,191,191,attentional-mouselab,17,341746,6
mouselab,False,"[11, 11, 11, 11, 12, 12, 12, 12, 14, 14, 14, 14]","[[4, 5, 6, 7, 2], [6, 5, 2, 7, 2], [4, 5, 2, 4, 7], [2, 5, 4, 9, 4], [5, 6, 7, 8, 2]]","[[0, 0, 0, 4, 0], [4, 4, 4, 4, 0], [0, 0, 0, 0, 0], [4, 4, 0, 4, 4], [4, 4, 4, 0, 0]]","[4, 3, 11, 10, 2]",18,14,4,0.045,0.040999999999999995,0.004,"[11, 12, 14]",3,random,5,5,12530,12,135,123,attentional-mouselab,18,355406,6
mouselab,False,[],"[[2, 2, 5, 4, 3], [5, 7, 6, 3, 4], [8, 6, 7, 5, 5], [3, 5, 5, 4, 5], [6, 5, 4, 6, 6]]","[[0, 0, 4, 4, 4], [4, 0, 4, 4, 4], [4, 4, 4, 0, 0], [0, 4, 4, 0, 0], [0, 4, 4, 0, 4]]","[2, 16, 3, 3, 6]",20,15,1,0.06,0.06,0.0,[],0,random,5,5,2759,0,179,179,attentional-mouselab,19,359581,6
mouselab,False,[],"[[6, 4, 5, 6, 4], [3, 9, 5, 6, 6], [5, 6, 5, 6, 5], [3, 2, 9, 3, 2], [5, 4, 4, 6, 4]]","[[4, 0, 4, 4, 0], [4, 4, 4, 4, 0], [4, 4, 4, 4, 0], [4, 0, 4, 0, 0], [4, 0, 0, 0, 4]]","[1, 4, 9, 6, 10]",14,16,4,0.042,0.042,0.0,[],0,random,5,5,5324,0,125,125,attentional-mouselab,20,366146,6
mouselab,False,[],"[[5, 7, 5, 5, 6], [5, 6, 6, 6, 5], [6, 5, 2, 4, 3], [5, 6, 7, 5, 7], [5, 3, 3, 6, 6]]","[[0, 4, 4, 4, 4], [0, 4, 4, 0, 0], [0, 4, 4, 4, 4], [0, 0, 4, 0, 4], [0, 0, 4, 4, 4]]","[15, 2, 1, 11, 1]",28,17,0,0.05,0.05,0.0,[],0,greedy,5,5,2599,0,151,151,attentional-mouselab,21,370150,6
mouselab,False,[],"[[4, 7, 6, 5, 5], [3, 6, 2, 7, 3], [6, 5, 5, 5, 5], [3, 3, 5, 5, 4], [9, 5, 6, 3, 6]]","[[4, 0, 4, 0, 4], [0, 4, 4, 0, 4], [4, 0, 4, 0, 4], [4, 4, 4, 0, 4], [0, 4, 0, 0, 4]]","[3, 6, 8, 6, 7]",6,18,3,0.049,0.049,0.0,[],0,greedy,5,5,2765,0,148,148,attentional-mouselab,22,374986,6
mouselab,False,[],"[[3, 6, 4, 6, 7], [4, 7, 4, 5, 5], [6, 5, 5, 4, 6], [3, 3, 5, 7, 1], [6, 6, 4, 6, 3]]","[[0, 4, 4, 4, 0], [4, 4, 4, 4, 0], [4, 4, 4, 0, 0], [0, 0, 4, 0, 0], [4, 4, 4, 4, 0]]","[12, 3, 8, 3, 4]",16,19,4,0.054,0.054,0.0,[],0,greedy,5,5,1798,0,162,162,attentional-mouselab,23,378016,6
mouselab,False,[],"[[8, 3, 3, 4, 4], [6, 6, 6, 8, 3], [7, 3, 2, 7, 0], [5, 4, 6, 4, 4], [7, 6, 4, 7, 4]]","[[0, 0, 4, 0, 4], [4, 4, 0, 4, 0], [0, 4, 4, 4, 4], [0, 4, 4, 4, 0], [4, 0, 0, 4, 4]]","[1, 3, 16, 3, 7]",22,20,0,0.067,0.067,0.0,[],0,random,5,5,2753,0,202,202,attentional-mouselab,24,382327,6
mouselab,False,[],"[[5, 7, 5, 6, 3], [5, 7, 4, 6, 7], [0, 6, 6, 4, 5], [1, 8, 5, 9, 8], [6, 4, 6, 2, 7]]","[[4, 4, 4, 4, 0], [4, 0, 0, 4, 0], [0, 0, 4, 4, 4], [4, 0, 4, 4, 4], [0, 4, 0, 4, 0]]","[9, 5, 1, 11, 4]",16,21,1,0.069,0.069,0.0,[],0,random,5,5,3919,0,208,208,attentional-mouselab,25,387577,6
mouselab,False,[],"[[8, 4, 8, 4, 7], [5, 5, 5, 3, 6], [6, 5, 2, 3, 7], [5, 5, 5, 5, 5], [7, 6, 4, 4, 7]]","[[0, 0, 0, 0, 4], [4, 4, 0, 4, 4], [4, 4, 0, 4, 4], [4, 4, 0, 0, 4], [4, 0, 0, 4, 4]]","[3, 7, 14, 4, 2]",18,22,2,0.038,0.038,0.0,[],0,greedy,5,5,3503,0,115,115,attentional-mouselab,26,392696,6
mouselab,True,[],"[[7, 1, 5, 4, 4], [8, 6, 2, 5, 6], [4, 6, 8, 7, 3], [7, 5, 4, 4, 5], [6, 9, 5, 5, 6]]","[[4, 0, 4, 0, 4], [4, 4, 0, 4, 4], [4, 0, 0, 4, 4], [4, 0, 0, 4, 4], [0, 0, 4, 0, 4]]","[6, 3, 11, 5, 5]",10,1,2,0.056,0.056,0.0,[],0,random,5,5,6743,0,169,169,attentional-mouselab,4,159403,7
mouselab,True,"[10, 10, 10, 10]","[[7, 5, 6, 4, 6], [4, 2, 6, 4, 7], [2, 8, 3, 5, 6], [4, 5, 5, 4, 3], [5, 0, 8, 3, 5]]","[[0, 4, 0, 4, 0], [4, 4, 0, 4, 0], [0, 4, 4, 0, 4], [4, 4, 0, 4, 4], [0, 0, 4, 4, 0]]","[15, 2, 6, 4, 3]",18,2,0,0.052,0.050666666666666665,0.0013333333333333333,[10],1,random,5,5,15548,4,156,152,attentional-mouselab,5,176754,7
mouselab,False,"[3, 3, 3, 3]","[[6, 6, 3, 4, 3], [9, 6, 6, 3, 5], [5, 3, 6, 5, 5], [4, 5, 4, 3, 7], [5, 6, 5, 4, 5]]","[[4, 4, 0, 0, 0], [4, 4, 0, 0, 4], [4, 4, 0, 4, 4], [4, 4, 0, 0, 4], [0, 4, 0, 0, 4]]","[15, 1, 5, 6, 3]",18,3,3,0.039,0.03766666666666667,0.0013333333333333333,[3],1,greedy,5,5,11701,4,118,114,attentional-mouselab,7,192975,7
mouselab,False,"[15, 15, 15, 15]","[[6, 2, 4, 6, 6], [5, 8, 4, 9, 4], [3, 4, 6, 5, 2], [5, 3, 5, 7, 5], [6, 4, 6, 6, 4]]","[[0, 0, 4, 4, 4], [0, 0, 0, 0, 4], [4, 4, 0, 4, 0], [0, 4, 4, 4, 4], [0, 4, 4, 0, 4]]","[8, 2, 1, 15, 4]",22,4,0,0.053,0.051666666666666666,0.0013333333333333333,[15],1,random,5,5,6429,4,160,156,attentional-mouselab,8,200616,7
mouselab,False,"[16, 16, 16, 16, 17, 17, 17, 17]","[[3, 5, 4, 6, 3], [4, 4, 7, 4, 7], [2, 5, 5, 4, 7], [2, 4, 3, 4, 1], [3, 3, 5, 3, 2]]","[[0, 4, 4, 4, 4], [4, 4, 4, 0, 4], [0, 0, 0, 4, 4], [0, 0, 0, 0, 4], [0, 0, 0, 4, 4]]","[2, 3, 8, 13, 4]",18,5,1,0.042,0.03933333333333334,0.0026666666666666666,"[16, 17]",2,random,5,5,7462,8,126,118,attentional-mouselab,9,209114,7
mouselab,False,[],"[[5, 5, 5, 5, 5], [2, 6, 8, 6, 7], [5, 7, 2, 5, 3], [2, 3, 5, 5, 6], [7, 6, 5, 3, 5]]","[[4, 4, 0, 4, 4], [4, 0, 0, 0, 4], [4, 4, 0, 4, 4], [4, 4, 0, 0, 4], [4, 4, 0, 0, 0]]","[9, 1, 2, 12, 6]",18,6,2,0.049,0.049,0.0,[],0,greedy,5,5,4969,0,147,147,attentional-mouselab,10,215128,7
mouselab,False,[],"[[4, 4, 6, 3, 7], [4, 5, 2, 4, 3], [6, 4, 4, 7, 3], [4, 4, 5, 7, 5], [1, 6, 6, 3, 3]]","[[4, 0, 4, 0, 4], [4, 0, 4, 0, 4], [4, 0, 0, 4, 4], [4, 0, 0, 4, 0], [4, 0, 4, 4, 4]]","[8, 9, 1, 4, 8]",14,7,1,0.048,0.048,0.0,[],0,greedy,5,5,5754,0,145,145,attentional-mouselab,11,221868,7
mouselab,False,"[1, 1, 1, 1]","[[8, 3, 1, 8, 5], [7, 5, 5, 7, 3], [3, 5, 4, 3, 6], [8, 4, 5, 6, 5], [4, 6, 5, 5, 7]]","[[4, 0, 0, 4, 0], [4, 0, 4, 4, 0], [4, 0, 4, 4, 0], [4, 4, 4, 4, 0], [4, 4, 0, 0, 0]]","[13, 4, 7, 1, 5]",16,8,4,0.053,0.051666666666666666,0.0013333333333333333,[1],1,greedy,5,5,15635,4,159,155,attentional-mouselab,12,238586,7
mouselab,False,[],"[[3, 2, 2, 6, 6], [5, 5, 5, 7, 6], [5, 5, 6, 7, 2], [2, 6, 7, 5, 7], [7, 6, 8, 4, 6]]","[[4, 0, 4, 4, 4], [4, 0, 0, 0, 0], [4, 4, 4, 4, 0], [0, 4, 4, 4, 0], [4, 0, 4, 4, 0]]","[5, 8, 5, 9, 3]",10,9,4,0.056,0.056,0.0,[],0,random,5,5,3254,0,169,169,attentional-mouselab,13,242830,7
mouselab,False,"[8, 8, 8, 8]","[[5, 7, 6, 7, 10], [6, 8, 4, 7, 2], [3, 6, 5, 5, 6], [5, 3, 5, 5, 4], [4, 4, 4, 7, 7]]","[[0, 4, 4, 0, 0], [4, 0, 4, 0, 0], [4, 4, 4, 4, 0], [4, 4, 4, 0, 0], [4, 4, 4, 0, 0]]","[5, 6, 5, 1, 13]",14,10,3,0.066,0.06466666666666666,0.0013333333333333333,[8],1,greedy,5,5,4896,4,198,194,attentional-mouselab,14,248740,7
mouselab,False,[],"[[3, 6, 3, 4, 4], [4, 8, 5, 6, 5], [5, 9, 4, 3, 5], [2, 3, 5, 4, 6], [7, 5, 6, 6, 5]]","[[4, 0, 4, 4, 4], [0, 0, 4, 4, 0], [0, 0, 4, 0, 4], [4, 0, 4, 4, 4], [4, 0, 4, 4, 0]]","[2, 11, 3, 4, 10]",18,11,1,0.063,0.063,0.0,[],0,greedy,5,5,3062,0,189,189,attentional-mouselab,15,252901,7
mouselab,False,"[23, 23, 23, 23]","[[8, 6, 3, 4, 5], [5, 5, 4, 5, 3], [5, 5, 4, 6, 2], [3, 6, 2, 9, 7], [3, 1, 5, 4, 2]]","[[4, 4, 0, 0, 4], [4, 4, 4, 0, 0], [4, 0, 0, 0, 4], [4, 4, 0, 4, 0], [4, 0, 4, 0, 4]]","[1, 2, 9, 8, 10]",18,12,3,0.06,0.058666666666666666,0.0013333333333333333,[23],1,random,5,5,3619,4,180,176,attentional-mouselab,16,257827,7
mouselab,False,"[0, 0, 0, 0, 23, 23, 23, 23]","[[6, 5, 4, 8, 4], [5, 3, 4, 5, 6], [3, 5, 2, 5, 4], [7, 6, 6, 7, 7], [6, 5, 6, 3, 8]]","[[0, 0, 4, 0, 4], [0, 0, 4, 0, 4], [4, 4, 0, 4, 0], [4, 4, 4, 4, 0], [0, 4, 0, 0, 4]]","[10, 5, 3, 4, 8]",12,13,0,0.057,0.05433333333333334,0.0026666666666666666,"[0, 23]",2,random,5,5,13177,8,170,162,attentional-mouselab,17,271956,7
mouselab,False,"[11, 11, 11, 11]","[[6, 7, 4, 4, 5], [6, 2, 7, 7, 5], [7, 6, 4, 4, 2], [6, 7, 3, 3, 6], [5, 5, 3, 4, 7]]","[[4, 0, 4, 4, 0], [0, 4, 0, 4, 0], [4, 0, 4, 4, 0], [4, 0, 0, 4, 4], [0, 0, 4, 4, 4]]","[10, 2, 12, 1, 5]",20,14,1,0.059,0.057666666666666665,0.0013333333333333333,[11],1,random,5,5,4431,4,178,174,attentional-mouselab,18,277320,7
mouselab,False,[],"[[5, 6, 7, 5, 7], [7, 3, 6, 5, 4], [4, 5, 4, 6, 8], [6, 5, 5, 3, 6], [4, 4, 7, 2, 5]]","[[4, 4, 0, 0, 4], [4, 0, 4, 0, 4], [4, 4, 4, 0, 0], [4, 4, 4, 0, 0], [4, 0, 4, 0, 4]]","[3, 8, 10, 6, 3]",12,15,3,0.046,0.046,0.0,[],0,greedy,5,5,2142,0,139,139,attentional-mouselab,19,280312,7
mouselab,False,"[22, 22, 22, 22]","[[3, 8, 6, 2, 5], [7, 5, 6, 5, 9], [5, 8, 7, 6, 5], [3, 3, 4, 6, 6], [6, 0, 4, 7, 4]]","[[0, 0, 4, 0, 0], [0, 0, 4, 4, 4], [4, 4, 0, 4, 0], [4, 4, 0, 0, 4], [4, 4, 0, 4, 4]]","[2, 2, 7, 5, 14]",18,16,2,0.05,0.04866666666666667,0.0013333333333333333,[22],1,random,5,5,7205,4,149,145,attentional-mouselab,20,288342,7
mouselab,False,[],"[[4, 5, 7, 7, 4], [3, 8, 2, 5, 5], [4, 2, 6, 6, 5], [6, 4, 5, 5, 5], [4, 6, 8, 3, 6]]","[[4, 0, 4, 4, 0], [4, 4, 0, 4, 0], [4, 0, 4, 4, 0], [4, 4, 4, 4, 0], [0, 4, 4, 0, 0]]","[6, 6, 13, 2, 3]",14,17,4,0.049,0.049,0.0,[],0,greedy,5,5,2474,0,147,147,attentional-mouselab,21,291505,7
mouselab,False,[],"[[4, 3, 4, 4, 3], [2, 3, 4, 7, 4], [5, 3, 3, 6, 5], [3, 6, 2, 5, 5], [5, 5, 4, 5, 6]]","[[0, 4, 4, 4, 4], [0, 4, 4, 4, 4], [0, 0, 4, 4, 0], [0, 0, 4, 0, 0], [4, 4, 4, 4, 0]]","[2, 2, 2, 4, 20]",28,18,4,0.055,0.055,0.0,[],0,greedy,5,5,6369,0,164,164,attentional-mouselab,22,298898,7
mouselab,False,"[7, 7, 7, 7]","[[7, 4, 4, 6, 7], [3, 4, 5, 3, 5], [2, 4, 5, 9, 2], [7, 5, 4, 6, 4], [5, 7, 6, 4, 6]]","[[4, 0, 4, 4, 0], [4, 4, 0, 0, 4], [0, 4, 0, 0, 4], [4, 4, 0, 4, 4], [4, 0, 0, 4, 0]]","[1, 24, 1, 3, 1]",36,19,2,0.049,0.04766666666666667,0.0013333333333333333,[7],1,random,5,5,5971,4,147,143,attentional-mouselab,23,305847,7
mouselab,False,[],"[[5, 5, 3, 5, 6], [5, 5, 6, 9, 3], [3, 5, 9, 6, 6], [3, 5, 3, 6, 7], [7, 5, 7, 4, 4]]","[[4, 0, 4, 0, 4], [4, 0, 0, 0, 0], [0, 4, 4, 4, 4], [4, 4, 0, 4, 4], [0, 0, 4, 4, 4]]","[6, 3, 10, 6, 5]",8,20,3,0.058,0.058,0.0,[],0,random,5,5,8453,0,173,173,attentional-mouselab,24,315543,7
mouselab,False,"[16, 16, 16, 16]","[[9, 5, 2, 3, 5], [7, 7, 6, 4, 7], [6, 4, 7, 6, 2], [2, 5, 3, 6, 3], [6, 7, 4, 6, 5]]","[[0, 4, 4, 4, 4], [0, 0, 0, 4, 4], [4, 4, 4, 4, 4], [0, 0, 0, 4, 0], [4, 0, 0, 0, 4]]","[10, 1, 4, 13, 2]",22,21,1,0.051,0.049666666666666665,0.0013333333333333333,[16],1,random,5,5,4904,4,152,148,attentional-mouselab,25,321673,7
mouselab,False,[],"[[6, 6, 5, 8, 5], [7, 6, 9, 7, 7], [4, 5, 1, 4, 7], [3, 4, 5, 6, 5], [5, 7, 5, 6, 2]]","[[0, 4, 4, 4, 4], [0, 4, 4, 4, 4], [0, 0, 4, 0, 4], [0, 0, 4, 4, 4], [0, 4, 4, 0, 0]]","[4, 5, 9, 7, 5]",8,22,0,0.047,0.047,0.0,[],0,greedy,5,5,3846,0,141,141,attentional-mouselab,26,326486,7
mouselab,True,[],"[[5, 3, 8, 7, 3], [3, 5, 3, 5, 5], [6, 4, 4, 6, 3], [5, 9, 5, 4, 4], [4, 5, 2, 4, 7]]","[[4, 0, 4, 4, 4], [0, 0, 4, 0, 4], [0, 4, 4, 0, 0], [4, 4, 4, 0, 0], [4, 4, 0, 4, 4]]","[2, 9, 13, 2, 4]",20,1,3,0.054,0.054,0.0,[],0,random,5,5,27221,0,161,161,attentional-mouselab,4,215567,8
mouselab,True,[8],"[[6, 5, 6, 3, 5], [4, 6, 5, 4, 2], [3, 5, 3, 5, 2], [4, 7, 9, 8, 9], [9, 7, 6, 7, 7]]","[[4, 4, 0, 4, 4], [4, 4, 0, 3, 4], [0, 4, 0, 4, 4], [0, 0, 0, 0, 4], [0, 4, 4, 0, 4]]","[2, 8, 6, 5, 9]",10,2,3,0.057,0.05666666666666667,0.0003333333333333333,[],0,random,5,5,24851,1,171,170,attentional-mouselab,5,243050,8
mouselab,False,[],"[[5, 3, 7, 5, 2], [2, 3, 5, 6, 6], [5, 4, 2, 4, 6], [5, 6, 10, 4, 7], [6, 7, 8, 7, 10]]","[[4, 4, 4, 0, 4], [4, 0, 4, 0, 4], [4, 0, 0, 0, 4], [4, 0, 4, 0, 4], [0, 4, 4, 0, 4]]","[9, 7, 4, 8, 2]",12,3,3,0.05,0.05,0.0,[],0,greedy,5,5,16573,0,149,149,attentional-mouselab,7,266656,8
mouselab,False,"[0, 0, 0, 0]","[[6, 6, 5, 9, 5], [6, 3, 5, 7, 8], [6, 4, 3, 6, 4], [8, 6, 6, 3, 4], [10, 3, 5, 5, 6]]","[[0, 0, 0, 4, 4], [0, 0, 0, 4, 4], [4, 0, 0, 4, 4], [4, 0, 4, 0, 4], [4, 0, 4, 4, 4]]","[13, 10, 3, 2, 2]",22,4,0,0.064,0.06266666666666666,0.0013333333333333333,[0],1,greedy,5,5,27683,4,192,188,attentional-mouselab,8,296570,8
mouselab,False,[],"[[6, 4, 6, 4, 6], [2, 5, 6, 7, 5], [6, 4, 6, 4, 4], [8, 7, 5, 6, 6], [6, 7, 4, 6, 5]]","[[4, 4, 0, 4, 4], [0, 0, 0, 4, 4], [4, 4, 0, 4, 4], [4, 4, 0, 4, 4], [0, 4, 0, 0, 0]]","[1, 15, 3, 4, 7]",20,5,2,0.054,0.054,0.0,[],0,greedy,5,5,11742,0,162,162,attentional-mouselab,9,309790,8
mouselab,False,[],"[[4, 6, 4, 4, 4], [8, 6, 5, 7, 9], [6, 4, 4, 8, 4], [7, 1, 4, 4, 6], [5, 1, 2, 4, 6]]","[[4, 0, 4, 0, 4], [4, 4, 0, 0, 0], [4, 4, 4, 0, 4], [4, 0, 4, 0, 0], [4, 4, 4, 0, 4]]","[2, 9, 5, 1, 13]",20,6,3,0.056,0.056,0.0,[],0,greedy,5,5,39149,0,167,167,attentional-mouselab,10,350246,8
mouselab,False,[],"[[4, 6, 4, 4, 8], [4, 5, 7, 5, 4], [7, 7, 6, 7, 5], [3, 5, 7, 6, 6], [7, 5, 5, 1, 4]]","[[0, 0, 0, 4, 0], [0, 4, 0, 4, 4], [4, 4, 4, 4, 4], [4, 4, 4, 4, 4], [4, 0, 0, 0, 0]]","[15, 5, 7, 2, 1]",20,7,4,0.064,0.064,0.0,[],0,random,5,5,9289,0,191,191,attentional-mouselab,11,360871,8
mouselab,False,"[4, 4, 4, 4]","[[3, 8, 3, 5, 5], [5, 5, 5, 7, 7], [3, 7, 4, 6, 5], [3, 4, 6, 6, 7], [4, 3, 7, 5, 6]]","[[4, 0, 0, 4, 0], [4, 4, 0, 4, 0], [4, 4, 0, 4, 4], [4, 0, 0, 4, 0], [4, 4, 0, 4, 0]]","[5, 2, 4, 7, 12]",14,8,4,0.06,0.058666666666666666,0.0013333333333333333,[4],1,greedy,5,5,16019,4,180,176,attentional-mouselab,12,377960,8
mouselab,False,[],"[[3, 2, 5, 6, 4], [4, 5, 6, 5, 5], [6, 2, 4, 7, 2], [4, 5, 7, 5, 6], [7, 9, 9, 7, 4]]","[[4, 0, 0, 4, 4], [0, 4, 0, 0, 4], [0, 4, 4, 4, 4], [0, 4, 4, 0, 4], [0, 4, 4, 0, 4]]","[4, 9, 6, 6, 5]",6,9,3,0.059,0.059,0.0,[],0,random,5,5,8383,0,176,176,attentional-mouselab,13,387650,8
mouselab,False,[],"[[5, 6, 4, 6, 8], [8, 8, 6, 1, 2], [2, 2, 7, 4, 2], [5, 5, 3, 5, 5], [7, 4, 3, 6, 5]]","[[0, 0, 0, 4, 4], [0, 4, 4, 4, 0], [0, 4, 0, 4, 4], [0, 4, 4, 4, 4], [0, 4, 4, 0, 4]]","[5, 16, 1, 5, 3]",20,10,0,0.067,0.067,0.0,[],0,greedy,5,5,4145,0,201,201,attentional-mouselab,14,393340,8
mouselab,False,[],"[[8, 8, 8, 4, 3], [4, 3, 7, 2, 7], [3, 6, 7, 5, 4], [5, 5, 6, 7, 5], [5, 5, 4, 4, 8]]","[[0, 0, 0, 4, 4], [4, 0, 0, 0, 0], [4, 4, 4, 0, 4], [4, 4, 0, 4, 0], [4, 4, 4, 4, 4]]","[4, 5, 14, 2, 5]",16,11,3,0.043,0.043,0.0,[],0,random,5,5,10475,0,130,130,attentional-mouselab,15,404904,8
mouselab,False,"[3, 3, 3, 3]","[[4, 6, 3, 6, 4], [6, 7, 6, 3, 6], [7, 5, 5, 8, 7], [4, 9, 5, 6, 4], [7, 4, 6, 6, 1]]","[[4, 0, 0, 0, 4], [4, 0, 4, 0, 0], [4, 4, 4, 4, 4], [4, 0, 0, 0, 4], [4, 4, 0, 0, 4]]","[9, 2, 4, 2, 13]",20,12,3,0.061,0.059666666666666666,0.0013333333333333333,[3],1,random,5,5,12045,4,182,178,attentional-mouselab,16,418120,8
mouselab,False,[],"[[8, 3, 7, 6, 3], [6, 4, 6, 4, 4], [4, 5, 4, 3, 6], [7, 4, 4, 3, 6], [5, 6, 7, 7, 5]]","[[4, 4, 0, 0, 4], [0, 0, 0, 0, 4], [4, 0, 4, 4, 4], [4, 4, 0, 4, 4], [0, 4, 4, 0, 4]]","[4, 11, 4, 6, 5]",10,13,2,0.056,0.056,0.0,[],0,random,5,5,8681,0,169,169,attentional-mouselab,17,427988,8
mouselab,False,[],"[[5, 3, 7, 3, 4], [6, 8, 4, 6, 6], [9, 7, 4, 4, 2], [4, 2, 5, 8, 7], [3, 6, 3, 9, 6]]","[[0, 0, 4, 4, 4], [0, 0, 0, 4, 4], [4, 4, 4, 0, 0], [4, 0, 4, 4, 4], [4, 0, 0, 4, 4]]","[1, 15, 1, 3, 10]",26,14,1,0.065,0.065,0.0,[],0,random,5,5,5497,0,196,196,attentional-mouselab,18,434366,8
mouselab,False,[],"[[4, 4, 6, 3, 7], [4, 5, 2, 4, 3], [6, 4, 4, 7, 3], [4, 4, 5, 7, 5], [1, 6, 6, 3, 3]]","[[0, 0, 4, 0, 4], [4, 0, 0, 4, 4], [4, 4, 0, 4, 4], [4, 4, 0, 0, 0], [4, 4, 4, 4, 0]]","[4, 2, 6, 13, 5]",14,15,3,0.056,0.056,0.0,[],0,random,5,5,18409,0,168,168,attentional-mouselab,19,454390,8
mouselab,False,[],"[[4, 5, 6, 7, 6], [6, 7, 4, 7, 6], [7, 6, 4, 8, 9], [6, 9, 6, 3, 4], [4, 5, 8, 8, 6]]","[[4, 4, 0, 0, 0], [4, 4, 4, 0, 4], [4, 4, 4, 0, 4], [4, 0, 4, 0, 4], [0, 0, 4, 0, 4]]","[8, 6, 2, 3, 11]",14,16,3,0.07,0.07,0.0,[],0,greedy,5,5,5097,0,211,211,attentional-mouselab,20,460372,8
mouselab,False,"[19, 19, 19, 19, 17, 17, 17, 17]","[[7, 5, 7, 3, 4], [6, 4, 6, 5, 9], [5, 5, 7, 4, 6], [3, 2, 7, 7, 2], [6, 6, 5, 5, 8]]","[[0, 4, 0, 4, 4], [4, 0, 4, 0, 0], [4, 0, 0, 0, 4], [4, 0, 0, 4, 0], [4, 4, 0, 4, 4]]","[3, 8, 6, 8, 5]",8,17,2,0.064,0.06133333333333334,0.0026666666666666666,"[19, 17]",2,random,5,5,16657,8,192,184,attentional-mouselab,21,477904,8
mouselab,False,"[13, 12, 13, 12, 13, 12, 13, 12]","[[3, 5, 6, 2, 4], [4, 5, 6, 7, 6], [5, 3, 7, 6, 8], [7, 7, 5, 5, 3], [4, 0, 7, 5, 4]]","[[4, 0, 0, 4, 0], [0, 0, 4, 0, 0], [0, 4, 0, 0, 4], [4, 4, 0, 0, 4], [4, 4, 4, 4, 4]]","[2, 3, 7, 16, 2]",22,18,2,0.058,0.05533333333333334,0.0026666666666666666,"[13, 12]",2,random,5,5,14736,8,173,165,attentional-mouselab,22,538357,8
mouselab,False,[],"[[4, 5, 6, 9, 9], [4, 5, 5, 3, 5], [5, 7, 6, 7, 7], [6, 0, 4, 4, 7], [2, 6, 5, 5, 6]]","[[0, 4, 0, 0, 4], [4, 0, 4, 4, 0], [4, 4, 0, 4, 4], [0, 0, 4, 4, 4], [4, 0, 0, 4, 4]]","[5, 8, 3, 4, 10]",12,19,1,0.049,0.049,0.0,[],0,random,5,5,4679,0,146,146,attentional-mouselab,23,544491,8
mouselab,False,[],"[[6, 6, 5, 6, 2], [7, 7, 5, 8, 6], [3, 8, 4, 7, 9], [6, 5, 8, 6, 3], [2, 1, 5, 4, 7]]","[[4, 4, 4, 0, 0], [4, 0, 4, 4, 0], [4, 4, 0, 4, 0], [4, 4, 0, 4, 0], [4, 0, 4, 4, 0]]","[2, 3, 18, 6, 1]",24,20,4,0.07,0.07,0.0,[],0,greedy,5,5,4740,0,209,209,attentional-mouselab,24,550524,8
mouselab,False,"[20, 20, 20, 20]","[[6, 5, 4, 3, 8], [8, 3, 4, 2, 3], [6, 6, 6, 6, 5], [4, 3, 2, 4, 5], [3, 5, 3, 4, 4]]","[[4, 0, 0, 0, 4], [4, 4, 4, 0, 0], [0, 4, 4, 0, 4], [4, 0, 4, 0, 4], [0, 4, 4, 0, 4]]","[4, 3, 11, 5, 7]",12,21,3,0.044,0.042666666666666665,0.0013333333333333333,[20],1,greedy,5,5,12003,4,132,128,attentional-mouselab,25,563526,8
mouselab,False,[],"[[10, 6, 9, 4, 6], [4, 7, 4, 2, 5], [6, 6, 4, 4, 5], [7, 4, 5, 5, 7], [4, 5, 6, 8, 9]]","[[0, 4, 4, 0, 4], [0, 4, 4, 4, 0], [0, 4, 0, 0, 4], [0, 4, 4, 4, 4], [0, 0, 4, 4, 4]]","[8, 2, 5, 9, 6]",10,22,0,0.068,0.068,0.0,[],0,greedy,5,5,5421,0,205,205,attentional-mouselab,26,570098,8
mouselab,True,[],"[[6, 3, 3, 6, 3], [7, 6, 6, 5, 4], [5, 8, 8, 9, 5], [5, 7, 10, 6, 4], [6, 5, 4, 5, 4]]","[[4, 0, 0, 4, 0], [0, 4, 4, 0, 0], [0, 0, 0, 4, 4], [4, 4, 4, 4, 4], [4, 4, 4, 4, 0]]","[3, 12, 4, 6, 5]",12,1,1,0.06,0.06,0.0,[],0,random,5,5,7118,0,180,180,attentional-mouselab,4,397630,9
mouselab,True,"[6, 16, 10, 15, 0, 13, 14, 7, 22, 12, 4, 4, 14, 6, 6, 6, 16, 16, 16, 15, 15, 15, 10, 10, 10, 0, 0, 0, 7, 7, 7, 12, 12, 12, 22, 22, 22, 8, 8, 8, 8, 13, 13, 13, 23, 23, 23, 23, 24, 24, 24, 24, 19, 19, 19, 19, 14, 14, 14, 4, 4, 8]","[[3, 2, 8, 6, 7], [6, 6, 6, 7, 5], [4, 4, 8, 7, 5], [4, 5, 5, 4, 6], [6, 4, 6, 5, 1]]","[[0, 0, 0, 0, 0], [0, 0, 0, 0, 0], [0, 0, 0, 0, 0], [0, 0, 0, 0, 0], [0, 0, 0, 0, 0]]","[17, 4, 4, 4, 1]",22,2,2,0.073,0.05299999999999999,0.02,"[6, 16, 15, 10, 0, 7, 12, 22, 8, 13, 23, 24, 19, 14, 4]",15,random,5,5,99747,60,218,158,attentional-mouselab,5,501180,9
mouselab,False,[],"[[4, 5, 5, 5, 6], [8, 4, 6, 7, 4], [4, 3, 4, 6, 6], [7, 5, 5, 5, 4], [4, 4, 4, 4, 4]]","[[0, 4, 4, 0, 4], [4, 4, 4, 4, 4], [0, 0, 0, 0, 0], [0, 0, 4, 4, 4], [4, 0, 4, 4, 4]]","[10, 5, 6, 4, 5]",8,3,1,0.043,0.043,0.0,[],0,random,5,5,10019,0,128,128,attentional-mouselab,7,524520,9
mouselab,False,[],"[[6, 6, 3, 7, 7], [5, 1, 2, 5, 6], [4, 6, 4, 2, 7], [8, 6, 4, 3, 1], [8, 5, 4, 4, 3]]","[[4, 4, 0, 0, 0], [0, 4, 4, 4, 0], [0, 0, 4, 4, 0], [4, 0, 4, 4, 4], [4, 4, 0, 4, 4]]","[2, 2, 3, 4, 19]",26,4,4,0.036,0.036,0.0,[],0,random,5,5,3639,0,108,108,attentional-mouselab,8,532900,9
mouselab,False,[],"[[5, 7, 6, 4, 3], [5, 3, 4, 5, 5], [7, 7, 3, 3, 5], [8, 5, 2, 6, 1], [6, 3, 7, 4, 6]]","[[0, 0, 4, 0, 4], [0, 0, 4, 4, 0], [0, 4, 4, 0, 4], [0, 4, 4, 4, 4], [0, 4, 4, 4, 4]]","[2, 9, 13, 5, 1]",20,5,2,0.035,0.035,0.0,[],0,greedy,5,5,7403,0,104,104,attentional-mouselab,9,543580,9
mouselab,False,[],"[[5, 5, 2, 2, 5], [3, 3, 4, 4, 5], [7, 3, 4, 5, 4], [4, 4, 6, 4, 5], [4, 3, 4, 7, 4]]","[[0, 0, 4, 0, 4], [4, 0, 4, 0, 4], [4, 4, 4, 0, 4], [0, 4, 4, 0, 4], [4, 0, 4, 0, 4]]","[7, 10, 3, 1, 9]",16,6,3,0.045,0.045,0.0,[],0,greedy,5,5,3956,0,136,136,attentional-mouselab,10,551040,9
mouselab,False,[],"[[6, 4, 4, 5, 6], [5, 3, 2, 3, 5], [5, 5, 4, 7, 4], [7, 4, 6, 5, 6], [7, 7, 7, 6, 6]]","[[4, 4, 4, 0, 4], [4, 4, 4, 0, 4], [0, 0, 4, 0, 4], [0, 4, 4, 4, 4], [0, 4, 0, 0, 0]]","[6, 12, 2, 4, 6]",12,7,0,0.059,0.059,0.0,[],0,random,5,5,6377,0,176,176,attentional-mouselab,11,562721,9
mouselab,False,[],"[[6, 3, 3, 4, 8], [6, 4, 3, 6, 8], [4, 6, 4, 4, 5], [4, 6, 4, 5, 5], [6, 4, 5, 6, 6]]","[[0, 0, 0, 4, 4], [4, 0, 4, 0, 4], [4, 4, 0, 4, 4], [4, 0, 4, 0, 0], [0, 4, 4, 4, 4]]","[17, 4, 3, 2, 4]",22,8,1,0.038,0.038,0.0,[],0,random,5,5,8717,0,113,113,attentional-mouselab,12,576160,9
mouselab,False,[],"[[8, 3, 6, 5, 6], [5, 4, 5, 5, 4], [3, 2, 3, 6, 4], [5, 5, 3, 5, 9], [1, 7, 6, 7, 4]]","[[4, 0, 4, 0, 0], [4, 4, 4, 0, 4], [0, 0, 4, 0, 4], [4, 4, 4, 0, 4], [4, 0, 4, 0, 4]]","[8, 11, 5, 2, 4]",14,9,3,0.054,0.054,0.0,[],0,greedy,5,5,5078,0,163,163,attentional-mouselab,13,584770,9
mouselab,False,[],"[[4, 3, 4, 6, 5], [3, 1, 3, 5, 5], [4, 5, 6, 5, 5], [7, 9, 6, 5, 5], [10, 4, 5, 6, 5]]","[[4, 0, 4, 4, 0], [0, 4, 4, 4, 4], [0, 4, 4, 4, 0], [0, 0, 4, 4, 4], [0, 4, 4, 0, 0]]","[6, 10, 3, 8, 3]",12,10,0,0.051,0.051,0.0,[],0,random,5,5,3637,0,152,152,attentional-mouselab,14,592169,9
mouselab,False,"[0, 0, 0, 0]","[[3, 2, 5, 6, 4], [4, 5, 6, 5, 5], [6, 2, 4, 7, 2], [4, 5, 7, 5, 6], [7, 9, 9, 7, 4]]","[[0, 0, 0, 4, 4], [0, 4, 0, 0, 4], [0, 4, 4, 4, 4], [0, 4, 4, 0, 4], [0, 4, 4, 0, 4]]","[3, 8, 5, 7, 7]",8,11,0,0.049,0.04766666666666667,0.0013333333333333333,[0],1,random,5,5,6249,4,148,144,attentional-mouselab,15,603179,9
mouselab,False,[],"[[5, 4, 7, 6, 4], [4, 2, 4, 7, 5], [3, 3, 7, 5, 5], [5, 5, 2, 6, 4], [3, 5, 4, 6, 5]]","[[0, 0, 0, 4, 4], [4, 4, 4, 0, 0], [4, 4, 0, 4, 4], [0, 0, 4, 4, 4], [0, 4, 0, 4, 4]]","[11, 8, 3, 4, 4]",14,12,2,0.051,0.051,0.0,[],0,random,5,5,3817,0,154,154,attentional-mouselab,16,609340,9
mouselab,False,[],"[[4, 3, 6, 3, 5], [5, 7, 6, 4, 4], [3, 6, 4, 3, 4], [2, 3, 2, 4, 5], [5, 7, 2, 6, 4]]","[[4, 4, 0, 0, 0], [4, 4, 0, 4, 0], [0, 4, 0, 4, 4], [4, 4, 0, 4, 4], [4, 4, 0, 4, 0]]","[8, 5, 8, 2, 7]",10,13,2,0.043,0.043,0.0,[],0,greedy,5,5,2257,0,128,128,attentional-mouselab,17,614159,9
mouselab,False,[],"[[5, 3, 8, 4, 3], [1, 5, 5, 7, 2], [2, 5, 2, 4, 7], [7, 7, 7, 7, 3], [6, 8, 5, 6, 6]]","[[4, 0, 4, 4, 0], [0, 0, 4, 4, 0], [0, 0, 4, 4, 4], [4, 0, 4, 4, 4], [4, 0, 4, 0, 4]]","[3, 4, 7, 15, 1]",20,14,2,0.056,0.056,0.0,[],0,greedy,5,5,4838,0,168,168,attentional-mouselab,18,622819,9
mouselab,False,[],"[[4, 8, 8, 7, 3], [7, 8, 3, 6, 5], [5, 4, 6, 4, 6], [4, 5, 6, 2, 5], [5, 7, 6, 6, 7]]","[[0, 4, 4, 0, 0], [0, 4, 4, 4, 4], [0, 0, 4, 4, 4], [0, 4, 0, 4, 4], [0, 4, 0, 4, 4]]","[2, 2, 2, 3, 21]",30,15,2,0.059,0.059,0.0,[],0,greedy,5,5,5308,0,178,178,attentional-mouselab,19,631670,9
mouselab,False,[],"[[7, 3, 3, 6, 7], [3, 7, 4, 2, 6], [3, 7, 4, 5, 6], [3, 4, 5, 5, 3], [4, 5, 5, 5, 7]]","[[4, 4, 4, 4, 4], [0, 0, 4, 4, 4], [4, 4, 0, 0, 4], [0, 4, 0, 0, 4], [4, 4, 0, 0, 0]]","[7, 4, 2, 9, 8]",12,16,3,0.048,0.048,0.0,[],0,random,5,5,4659,0,145,145,attentional-mouselab,20,639530,9
mouselab,False,[],"[[2, 4, 1, 4, 7], [8, 7, 3, 8, 3], [4, 8, 5, 4, 7], [3, 3, 6, 8, 5], [4, 3, 5, 5, 5]]","[[0, 0, 4, 4, 4], [0, 0, 4, 4, 0], [4, 0, 4, 4, 0], [4, 0, 4, 0, 4], [4, 0, 4, 4, 4]]","[2, 12, 7, 4, 5]",14,17,1,0.058,0.058,0.0,[],0,greedy,5,5,3068,0,175,175,attentional-mouselab,21,645620,9
mouselab,False,[],"[[6, 8, 3, 4, 4], [5, 4, 6, 8, 3], [3, 2, 5, 6, 7], [4, 5, 2, 5, 6], [6, 6, 5, 3, 6]]","[[4, 4, 0, 4, 0], [0, 4, 0, 0, 4], [0, 4, 4, 4, 0], [4, 4, 4, 4, 4], [0, 0, 4, 0, 4]]","[7, 3, 17, 2, 1]",24,18,3,0.056,0.056,0.0,[],0,random,5,5,3318,0,167,167,attentional-mouselab,22,652160,9
mouselab,False,[],"[[4, 5, 6, 5, 4], [5, 6, 6, 5, 6], [8, 7, 5, 4, 9], [3, 3, 8, 3, 6], [4, 4, 3, 5, 5]]","[[0, 0, 4, 4, 0], [4, 4, 4, 4, 0], [4, 0, 4, 0, 0], [4, 0, 4, 4, 0], [4, 4, 4, 4, 0]]","[2, 5, 5, 11, 7]",12,19,4,0.061,0.061,0.0,[],0,greedy,5,5,2717,0,184,184,attentional-mouselab,23,656899,9
mouselab,False,[],"[[7, 5, 2, 3, 4], [5, 6, 8, 3, 2], [5, 8, 8, 3, 6], [2, 6, 6, 5, 3], [6, 5, 10, 6, 5]]","[[0, 4, 0, 4, 0], [4, 4, 0, 0, 4], [4, 4, 0, 4, 4], [4, 0, 0, 4, 4], [4, 4, 0, 4, 0]]","[10, 8, 4, 5, 3]",12,20,2,0.059,0.059,0.0,[],0,greedy,5,5,1799,0,176,176,attentional-mouselab,24,660840,9
mouselab,False,[],"[[4, 7, 3, 5, 4], [2, 5, 4, 6, 6], [2, 7, 6, 7, 5], [6, 3, 7, 6, 5], [10, 0, 4, 8, 6]]","[[0, 0, 4, 4, 4], [4, 4, 4, 4, 4], [0, 0, 4, 0, 4], [0, 4, 0, 4, 4], [4, 0, 0, 4, 0]]","[12, 4, 9, 2, 3]",18,21,1,0.058,0.058,0.0,[],0,random,5,5,9787,0,173,173,attentional-mouselab,25,673809,9
mouselab,False,[],"[[7, 5, 6, 4, 6], [4, 2, 6, 4, 7], [2, 8, 3, 5, 6], [4, 5, 5, 4, 3], [5, 0, 8, 3, 5]]","[[4, 4, 4, 0, 0], [4, 4, 4, 0, 0], [4, 4, 4, 0, 4], [4, 4, 0, 0, 4], [4, 0, 4, 0, 0]]","[3, 15, 8, 3, 1]",22,22,3,0.042,0.042,0.0,[],0,greedy,5,5,4568,0,127,127,attentional-mouselab,26,680840,9
mouselab,True,"[0, 0, 0, 0]","[[6, 5, 4, 7, 2], [5, 7, 5, 5, 3], [6, 7, 9, 5, 8], [4, 4, 3, 5, 5], [5, 5, 8, 5, 5]]","[[0, 0, 4, 4, 4], [4, 4, 0, 4, 4], [4, 0, 4, 0, 0], [0, 0, 4, 4, 0], [0, 0, 4, 4, 4]]","[13, 4, 8, 2, 3]",18,1,0,0.056,0.05466666666666667,0.0013333333333333333,[0],1,random,5,5,19682,4,169,165,attentional-mouselab,4,106753,10
mouselab,True,[],"[[4, 6, 6, 3, 4], [2, 2, 4, 4, 4], [4, 4, 5, 8, 5], [6, 6, 9, 7, 5], [7, 4, 6, 4, 6]]","[[4, 4, 0, 4, 0], [4, 0, 0, 0, 0], [4, 4, 4, 4, 4], [4, 4, 0, 4, 0], [0, 4, 0, 4, 4]]","[6, 18, 3, 2, 1]",24,2,4,0.042,0.042,0.0,[],0,random,5,5,6016,0,127,127,attentional-mouselab,5,114439,10
mouselab,False,[],"[[7, 7, 4, 5, 5], [4, 8, 7, 5, 1], [8, 5, 8, 6, 8], [5, 7, 8, 5, 5], [2, 7, 7, 6, 9]]","[[0, 4, 0, 4, 4], [4, 4, 4, 0, 0], [4, 0, 4, 4, 4], [4, 0, 0, 0, 4], [4, 0, 0, 4, 4]]","[12, 12, 2, 3, 1]",24,3,2,0.06,0.06,0.0,[],0,random,5,5,3579,0,179,179,attentional-mouselab,7,121797,10
mouselab,False,[],"[[6, 5, 5, 5, 8], [7, 2, 2, 4, 5], [5, 7, 3, 4, 6], [10, 8, 4, 8, 8], [5, 9, 6, 2, 3]]","[[4, 4, 0, 4, 0], [0, 4, 0, 0, 0], [4, 4, 0, 4, 0], [4, 4, 4, 4, 0], [4, 4, 4, 4, 0]]","[3, 11, 3, 8, 5]",14,4,4,0.059,0.059,0.0,[],0,greedy,5,5,3760,0,176,176,attentional-mouselab,8,126918,10
mouselab,False,[],"[[8, 4, 9, 5, 5], [5, 7, 3, 3, 6], [6, 2, 1, 3, 6], [5, 4, 6, 4, 7], [6, 6, 4, 5, 4]]","[[4, 0, 4, 4, 0], [4, 0, 4, 4, 4], [0, 0, 4, 4, 4], [0, 0, 4, 4, 0], [4, 0, 4, 4, 0]]","[1, 5, 4, 13, 7]",16,5,1,0.047,0.047,0.0,[],0,greedy,5,5,1733,0,141,141,attentional-mouselab,9,130464,10
mouselab,False,[],"[[4, 4, 5, 6, 4], [8, 4, 5, 3, 4], [3, 1, 4, 4, 5], [5, 8, 3, 4, 1], [4, 7, 3, 3, 8]]","[[4, 4, 4, 4, 0], [4, 4, 0, 0, 4], [0, 0, 4, 0, 4], [4, 0, 4, 0, 0], [4, 0, 4, 4, 4]]","[7, 9, 3, 9, 2]",14,6,3,0.041,0.041,0.0,[],0,random,5,5,3218,0,123,123,attentional-mouselab,10,135283,10
mouselab,False,[],"[[6, 4, 5, 5, 4], [3, 6, 2, 4, 3], [4, 4, 4, 7, 8], [6, 2, 7, 8, 4], [4, 7, 6, 5, 2]]","[[4, 0, 4, 0, 0], [4, 0, 4, 4, 4], [4, 0, 0, 4, 4], [4, 0, 0, 4, 0], [4, 0, 4, 4, 4]]","[5, 4, 10, 10, 1]",16,7,1,0.037,0.037,0.0,[],0,greedy,5,5,1960,0,111,111,attentional-mouselab,11,139584,10
mouselab,False,[],"[[5, 6, 5, 4, 9], [7, 4, 8, 8, 5], [2, 7, 6, 5, 6], [5, 6, 9, 5, 4], [5, 5, 2, 6, 8]]","[[4, 0, 4, 4, 0], [0, 0, 0, 4, 4], [4, 4, 4, 0, 4], [0, 0, 4, 4, 0], [0, 4, 4, 4, 4]]","[5, 7, 10, 2, 6]",10,8,1,0.057,0.057,0.0,[],0,random,5,5,2831,0,170,170,attentional-mouselab,12,143677,10
mouselab,False,[],"[[4, 5, 2, 5, 5], [3, 4, 6, 4, 4], [4, 5, 4, 5, 5], [5, 3, 6, 4, 4], [5, 4, 1, 6, 6]]","[[4, 0, 4, 0, 0], [4, 0, 0, 0, 4], [4, 4, 4, 4, 0], [4, 4, 0, 4, 4], [0, 4, 0, 4, 4]]","[8, 1, 1, 16, 4]",24,9,2,0.042,0.042,0.0,[],0,random,5,5,4049,0,126,126,attentional-mouselab,13,148977,10
mouselab,False,[],"[[4, 5, 2, 5, 5], [5, 3, 6, 4, 4], [6, 3, 4, 6, 5], [4, 5, 4, 6, 3], [6, 5, 6, 5, 5]]","[[4, 4, 0, 4, 4], [0, 0, 0, 4, 4], [4, 4, 4, 4, 4], [0, 0, 0, 4, 0], [4, 0, 4, 4, 0]]","[2, 6, 1, 8, 13]",18,10,1,0.045,0.045,0.0,[],0,random,5,5,2407,0,136,136,attentional-mouselab,14,152390,10
mouselab,False,[],"[[5, 4, 5, 7, 9], [5, 5, 5, 6, 8], [4, 3, 6, 5, 6], [6, 1, 5, 5, 3], [6, 4, 6, 6, 5]]","[[4, 0, 0, 4, 4], [4, 0, 4, 4, 4], [0, 0, 4, 4, 4], [0, 0, 4, 4, 4], [4, 0, 4, 0, 0]]","[2, 4, 3, 16, 5]",20,11,1,0.024,0.024,0.0,[],0,greedy,5,5,966,0,73,73,attentional-mouselab,15,155004,10
mouselab,False,[],"[[7, 3, 3, 6, 7], [3, 7, 4, 2, 6], [3, 7, 4, 5, 6], [3, 4, 5, 5, 3], [4, 5, 5, 5, 7]]","[[0, 4, 4, 0, 4], [0, 4, 4, 4, 0], [0, 4, 4, 4, 4], [0, 4, 0, 0, 4], [0, 4, 0, 4, 4]]","[2, 7, 6, 2, 13]",16,12,0,0.037,0.037,0.0,[],0,greedy,5,5,2100,0,111,111,attentional-mouselab,16,158224,10
mouselab,False,[],"[[3, 3, 5, 4, 5], [2, 6, 4, 9, 6], [7, 10, 7, 4, 6], [3, 7, 6, 8, 5], [4, 8, 5, 4, 6]]","[[0, 4, 4, 0, 0], [4, 0, 4, 4, 4], [4, 0, 0, 0, 4], [0, 4, 4, 4, 4], [4, 0, 4, 4, 0]]","[1, 8, 7, 4, 10]",14,13,1,0.076,0.076,0.0,[],0,random,5,5,1095,0,229,229,attentional-mouselab,17,161158,10
mouselab,False,[],"[[5, 7, 6, 8, 5], [1, 4, 3, 7, 4], [5, 5, 6, 4, 5], [5, 9, 4, 6, 6], [5, 3, 3, 6, 3]]","[[0, 4, 4, 4, 0], [0, 4, 4, 4, 0], [0, 4, 4, 4, 4], [0, 0, 0, 0, 4], [0, 4, 4, 4, 4]]","[6, 12, 1, 5, 6]",12,14,1,0.053,0.053,0.0,[],0,greedy,5,5,2665,0,158,158,attentional-mouselab,18,165218,10
mouselab,False,[],"[[6, 5, 8, 3, 6], [2, 3, 8, 5, 6], [5, 6, 3, 7, 4], [8, 5, 7, 4, 7], [6, 4, 7, 5, 8]]","[[0, 4, 4, 4, 0], [0, 4, 4, 4, 4], [0, 4, 0, 0, 4], [0, 4, 0, 4, 4], [0, 4, 4, 4, 0]]","[12, 2, 4, 9, 3]",18,15,0,0.062,0.062,0.0,[],0,greedy,5,5,1926,0,186,186,attentional-mouselab,19,168349,10
mouselab,False,[],"[[3, 6, 3, 4, 4], [4, 8, 5, 6, 5], [5, 9, 4, 3, 5], [2, 3, 5, 4, 6], [7, 5, 6, 6, 5]]","[[4, 0, 4, 4, 4], [0, 0, 4, 4, 0], [0, 0, 4, 0, 4], [4, 0, 4, 4, 4], [4, 0, 4, 4, 0]]","[4, 8, 7, 4, 7]",8,16,1,0.066,0.066,0.0,[],0,greedy,5,5,918,0,198,198,attentional-mouselab,20,170100,10
mouselab,False,[],"[[5, 5, 7, 4, 7], [1, 7, 4, 6, 3], [5, 5, 6, 3, 4], [1, 4, 7, 3, 6], [5, 5, 3, 3, 4]]","[[0, 0, 0, 0, 4], [4, 4, 4, 0, 4], [4, 0, 4, 0, 4], [4, 4, 4, 0, 4], [0, 4, 4, 0, 4]]","[8, 6, 3, 7, 6]",6,17,2,0.055,0.055,0.0,[],0,greedy,5,5,2345,0,165,165,attentional-mouselab,21,173824,10
mouselab,False,[],"[[5, 6, 5, 1, 6], [4, 7, 8, 5, 6], [7, 7, 4, 6, 8], [4, 3, 2, 5, 7], [5, 5, 8, 8, 4]]","[[4, 0, 0, 4, 4], [4, 4, 0, 0, 4], [4, 4, 0, 4, 0], [4, 0, 0, 4, 0], [4, 4, 0, 4, 4]]","[1, 3, 2, 17, 7]",24,18,2,0.042,0.042,0.0,[],0,greedy,5,5,1081,0,127,127,attentional-mouselab,22,175968,10
mouselab,False,[],"[[8, 4, 5, 2, 4], [6, 6, 3, 7, 6], [6, 4, 5, 4, 1], [4, 2, 4, 4, 6], [7, 4, 4, 3, 6]]","[[4, 4, 4, 4, 4], [0, 4, 4, 0, 0], [4, 4, 0, 4, 0], [0, 0, 4, 0, 4], [0, 0, 4, 4, 4]]","[6, 2, 13, 1, 8]",18,19,0,0.066,0.066,0.0,[],0,random,5,5,1169,0,198,198,attentional-mouselab,23,178158,10
mouselab,False,[],"[[6, 4, 7, 6, 5], [4, 6, 2, 4, 4], [4, 3, 2, 3, 4], [6, 7, 6, 4, 4], [4, 4, 4, 2, 4]]","[[4, 0, 0, 4, 4], [4, 4, 4, 0, 0], [0, 4, 4, 0, 0], [4, 4, 4, 4, 0], [4, 4, 4, 0, 0]]","[5, 11, 2, 9, 3]",16,20,4,0.042,0.042,0.0,[],0,random,5,5,1112,0,125,125,attentional-mouselab,24,180186,10
mouselab,False,[],"[[6, 1, 6, 2, 5], [5, 5, 4, 8, 3], [3, 1, 4, 8, 5], [4, 5, 5, 2, 6], [7, 7, 3, 5, 5]]","[[0, 4, 0, 4, 0], [0, 4, 0, 0, 0], [4, 0, 4, 4, 4], [4, 4, 4, 0, 4], [4, 4, 4, 0, 4]]","[3, 13, 1, 9, 4]",20,21,3,0.052,0.052,0.0,[],0,random,5,5,1709,0,156,156,attentional-mouselab,25,183586,10
mouselab,False,[],"[[5, 6, 5, 4, 3], [3, 5, 8, 8, 5], [5, 4, 6, 4, 5], [8, 5, 7, 5, 2], [1, 5, 3, 6, 4]]","[[4, 0, 4, 0, 4], [0, 0, 0, 4, 4], [4, 4, 4, 0, 4], [4, 0, 4, 0, 0], [4, 0, 4, 4, 4]]","[5, 13, 4, 4, 4]",14,22,1,0.05,0.05,0.0,[],0,random,5,5,1497,0,151,151,attentional-mouselab,26,186268,10
mouselab,True,[],"[[7, 4, 6, 5, 6], [6, 6, 7, 5, 5], [4, 7, 5, 2, 6], [4, 6, 6, 5, 3], [7, 4, 5, 3, 4]]","[[4, 0, 4, 0, 0], [4, 0, 4, 0, 0], [4, 4, 4, 0, 4], [4, 4, 4, 4, 4], [0, 0, 4, 0, 4]]","[15, 1, 2, 5, 7]",20,1,3,0.043,0.043,0.0,[],0,random,5,5,2840,0,130,130,attentional-mouselab,4,131931,11
mouselab,True,"[2, 2, 2, 2, 3, 3, 3, 3]","[[3, 2, 5, 2, 4], [4, 5, 5, 5, 4], [4, 6, 6, 4, 5], [3, 8, 4, 3, 4], [3, 5, 6, 3, 4]]","[[4, 4, 0, 0, 4], [4, 4, 0, 4, 0], [0, 4, 0, 0, 4], [4, 4, 0, 0, 0], [4, 0, 4, 0, 4]]","[17, 4, 3, 4, 2]",22,2,2,0.05,0.04733333333333334,0.0026666666666666666,"[2, 3]",2,random,5,5,13879,8,151,143,attentional-mouselab,5,148538,11
mouselab,False,"[16, 16, 16, 16, 18, 18, 18, 18]","[[7, 5, 7, 6, 5], [4, 8, 5, 3, 4], [5, 5, 6, 6, 8], [3, 6, 8, 4, 4], [4, 7, 4, 7, 8]]","[[4, 4, 0, 0, 0], [4, 0, 4, 0, 4], [4, 4, 4, 0, 0], [0, 0, 4, 0, 4], [0, 4, 0, 4, 4]]","[5, 6, 3, 9, 7]",8,3,1,0.064,0.06133333333333334,0.0026666666666666666,"[16, 18]",2,random,5,5,13033,8,191,183,attentional-mouselab,7,165758,11
mouselab,False,"[18, 18, 18, 18, 16, 16, 16, 16]","[[3, 3, 6, 7, 7], [6, 6, 7, 7, 3], [3, 4, 5, 8, 5], [5, 5, 5, 4, 5], [5, 7, 6, 5, 7]]","[[0, 4, 4, 4, 0], [4, 4, 4, 4, 4], [4, 0, 4, 0, 4], [4, 0, 4, 0, 0], [0, 0, 0, 0, 0]]","[1, 2, 7, 16, 4]",22,4,3,0.054,0.051333333333333335,0.0026666666666666666,"[18, 16]",2,random,5,5,14277,8,161,153,attentional-mouselab,8,182018,11
mouselab,False,"[3, 3, 3, 3]","[[4, 4, 4, 5, 5], [2, 7, 7, 8, 4], [2, 2, 4, 4, 6], [5, 6, 5, 6, 7], [5, 3, 4, 8, 4]]","[[4, 0, 4, 0, 0], [0, 0, 4, 4, 4], [4, 0, 0, 4, 4], [4, 0, 4, 4, 0], [0, 0, 4, 4, 4]]","[15, 1, 3, 8, 3]",22,5,3,0.056,0.05466666666666667,0.0013333333333333333,[3],1,greedy,5,5,6933,4,167,163,attentional-mouselab,9,194393,11
mouselab,False,[],"[[5, 6, 5, 5, 3], [3, 4, 3, 5, 7], [6, 5, 6, 7, 3], [6, 3, 5, 2, 6], [2, 7, 3, 5, 3]]","[[4, 4, 0, 0, 0], [0, 4, 4, 0, 4], [4, 4, 4, 0, 4], [4, 0, 4, 0, 4], [4, 4, 0, 0, 4]]","[12, 6, 6, 4, 2]",12,6,1,0.051,0.051,0.0,[],0,greedy,5,5,4217,0,152,152,attentional-mouselab,10,201141,11
mouselab,False,"[22, 22, 22, 22, 23, 23, 23, 23, 24, 24, 24, 24]","[[3, 6, 6, 5, 9], [5, 3, 5, 2, 3], [7, 7, 5, 3, 6], [6, 7, 5, 9, 5], [3, 4, 3, 5, 6]]","[[0, 0, 4, 4, 0], [4, 0, 0, 4, 4], [4, 0, 4, 4, 4], [0, 0, 4, 0, 4], [4, 0, 0, 0, 0]]","[4, 7, 2, 5, 12]",14,7,1,0.047,0.043,0.004,"[22, 23, 24]",3,greedy,5,5,15092,12,142,130,attentional-mouselab,11,217485,11
mouselab,False,[],"[[3, 6, 5, 5, 3], [7, 6, 2, 6, 7], [6, 3, 3, 2, 3], [3, 4, 3, 6, 4], [6, 4, 3, 8, 7]]","[[4, 0, 0, 0, 4], [4, 0, 4, 4, 4], [0, 4, 4, 4, 0], [4, 4, 0, 4, 4], [4, 0, 0, 0, 4]]","[7, 8, 1, 3, 11]",16,8,3,0.064,0.064,0.0,[],0,random,5,5,3563,0,191,191,attentional-mouselab,12,254594,11
mouselab,False,[],"[[3, 5, 6, 7, 5], [5, 6, 3, 6, 3], [5, 8, 8, 7, 6], [5, 5, 5, 3, 5], [5, 2, 6, 3, 7]]","[[4, 4, 4, 4, 0], [0, 4, 4, 0, 4], [0, 0, 4, 4, 4], [0, 4, 4, 4, 0], [4, 4, 0, 0, 0]]","[2, 16, 3, 5, 4]",20,9,2,0.044,0.044,0.0,[],0,random,5,5,5724,0,133,133,attentional-mouselab,13,261827,11
mouselab,False,[],"[[6, 5, 4, 7, 7], [8, 7, 2, 7, 3], [5, 10, 4, 2, 7], [7, 4, 2, 5, 6], [6, 6, 3, 4, 6]]","[[0, 0, 4, 4, 4], [0, 4, 4, 0, 4], [0, 4, 4, 4, 4], [0, 0, 0, 0, 4], [0, 4, 4, 4, 4]]","[1, 5, 14, 8, 2]",20,10,0,0.061,0.061,0.0,[],0,greedy,5,5,5822,0,184,184,attentional-mouselab,14,269186,11
mouselab,False,[],"[[2, 4, 4, 3, 4], [3, 4, 4, 6, 2], [6, 5, 7, 4, 4], [4, 2, 6, 6, 5], [6, 7, 5, 7, 4]]","[[0, 0, 4, 0, 4], [4, 4, 4, 4, 4], [4, 4, 0, 0, 0], [4, 0, 4, 0, 4], [4, 4, 0, 4, 0]]","[3, 11, 3, 1, 12]",22,11,2,0.048,0.048,0.0,[],0,random,5,5,4882,0,143,143,attentional-mouselab,15,275478,11
mouselab,False,[],"[[6, 7, 9, 4, 2], [7, 7, 0, 6, 5], [9, 5, 5, 1, 5], [2, 5, 1, 4, 6], [4, 8, 6, 7, 4]]","[[0, 4, 4, 0, 0], [0, 4, 4, 4, 4], [0, 4, 4, 4, 4], [0, 0, 4, 4, 0], [0, 4, 4, 0, 4]]","[4, 12, 6, 6, 2]",12,12,0,0.061,0.061,0.0,[],0,greedy,5,5,4216,0,182,182,attentional-mouselab,16,281047,11
mouselab,False,"[4, 4, 4, 4]","[[3, 3, 5, 6, 5], [7, 8, 5, 3, 7], [3, 6, 6, 3, 5], [10, 5, 2, 3, 2], [3, 6, 4, 5, 9]]","[[4, 4, 0, 0, 0], [4, 4, 4, 0, 4], [0, 0, 0, 4, 0], [4, 0, 4, 4, 4], [4, 4, 4, 0, 0]]","[15, 5, 1, 2, 7]",20,13,4,0.061,0.059666666666666666,0.0013333333333333333,[4],1,random,5,5,9805,4,182,178,attentional-mouselab,17,292294,11
mouselab,False,"[20, 20, 20, 20]","[[1, 6, 3, 7, 9], [6, 4, 6, 4, 6], [2, 6, 6, 5, 7], [3, 7, 5, 5, 1], [5, 3, 6, 4, 3]]","[[4, 4, 4, 4, 0], [0, 0, 4, 4, 0], [4, 4, 0, 4, 0], [4, 0, 4, 4, 0], [0, 4, 0, 4, 0]]","[1, 7, 2, 4, 16]",22,14,0,0.046,0.04466666666666667,0.0013333333333333333,[20],1,greedy,5,5,9888,4,139,135,attentional-mouselab,18,303486,11
mouselab,False,[],"[[4, 5, 5, 5, 7], [6, 3, 7, 6, 7], [2, 4, 4, 2, 5], [5, 8, 6, 6, 7], [5, 6, 3, 8, 4]]","[[4, 0, 0, 0, 4], [0, 4, 0, 4, 4], [4, 4, 0, 4, 0], [4, 0, 0, 4, 4], [4, 4, 0, 4, 4]]","[2, 2, 14, 7, 5]",18,15,2,0.046,0.046,0.0,[],0,greedy,5,5,2022,0,137,137,attentional-mouselab,19,306665,11
mouselab,False,[],"[[5, 6, 2, 8, 8], [6, 5, 8, 5, 7], [4, 3, 5, 5, 6], [3, 3, 3, 5, 5], [8, 3, 5, 6, 6]]","[[4, 0, 4, 0, 4], [4, 4, 4, 0, 0], [4, 4, 4, 0, 0], [4, 0, 4, 0, 0], [4, 4, 4, 0, 4]]","[1, 4, 5, 17, 3]",22,16,3,0.052,0.052,0.0,[],0,greedy,5,5,1632,0,156,156,attentional-mouselab,20,309686,11
mouselab,False,"[6, 6, 6, 6]","[[5, 5, 6, 5, 6], [6, 7, 6, 5, 6], [5, 6, 3, 4, 4], [7, 4, 4, 3, 1], [2, 3, 5, 5, 3]]","[[4, 4, 4, 4, 0], [4, 0, 0, 4, 4], [4, 0, 4, 4, 0], [4, 0, 4, 0, 0], [4, 0, 0, 4, 0]]","[4, 13, 4, 4, 5]",14,17,1,0.055,0.05366666666666667,0.0013333333333333333,[6],1,random,5,5,6566,4,166,162,attentional-mouselab,21,317916,11
mouselab,False,[],"[[2, 4, 6, 3, 4], [5, 8, 6, 9, 5], [7, 2, 4, 3, 3], [8, 7, 5, 5, 5], [4, 6, 9, 4, 7]]","[[0, 4, 0, 4, 4], [4, 4, 4, 4, 0], [0, 4, 0, 0, 4], [4, 4, 0, 0, 4], [0, 4, 0, 4, 4]]","[16, 6, 4, 2, 2]",20,18,1,0.049,0.049,0.0,[],0,random,5,5,4232,0,146,146,attentional-mouselab,22,323981,11
mouselab,False,"[4, 4, 4, 4, 2, 2, 2, 2, 0, 0, 0, 0]","[[4, 2, 3, 4, 5], [3, 7, 3, 5, 6], [7, 4, 3, 5, 6], [6, 7, 4, 5, 6], [8, 6, 6, 6, 6]]","[[0, 0, 0, 0, 0], [4, 4, 0, 0, 4], [4, 0, 0, 4, 0], [0, 4, 4, 0, 4], [4, 4, 0, 4, 4]]","[14, 4, 4, 2, 6]",16,19,4,0.055,0.051000000000000004,0.004,"[4, 2, 0]",3,random,5,5,10578,12,166,154,attentional-mouselab,23,336053,11
mouselab,False,[],"[[4, 7, 3, 5, 5], [10, 5, 6, 3, 6], [5, 5, 6, 4, 3], [4, 6, 4, 4, 7], [3, 4, 6, 6, 7]]","[[4, 0, 4, 0, 4], [4, 0, 4, 4, 4], [4, 0, 0, 0, 0], [4, 0, 4, 0, 4], [4, 0, 4, 4, 4]]","[6, 7, 4, 4, 9]",8,20,1,0.052,0.052,0.0,[],0,greedy,5,5,3434,0,157,157,attentional-mouselab,24,340574,11
mouselab,False,[],"[[6, 6, 6, 4, 6], [3, 5, 7, 6, 6], [3, 7, 6, 5, 4], [6, 6, 6, 5, 4], [6, 4, 7, 4, 6]]","[[4, 0, 0, 4, 4], [0, 4, 0, 4, 4], [0, 4, 0, 4, 4], [4, 4, 0, 4, 4], [4, 4, 0, 0, 0]]","[12, 7, 3, 7, 1]",16,21,2,0.063,0.063,0.0,[],0,greedy,5,5,5549,0,188,188,attentional-mouselab,25,347410,11
mouselab,False,"[1, 1, 1, 1]","[[2, 4, 2, 4, 5], [5, 5, 8, 5, 7], [5, 4, 5, 5, 1], [6, 6, 5, 4, 5], [3, 8, 3, 7, 4]]","[[0, 0, 0, 4, 0], [0, 4, 4, 4, 4], [0, 4, 4, 4, 4], [4, 0, 0, 0, 4], [4, 0, 0, 4, 4]]","[10, 6, 6, 4, 4]",8,22,1,0.05,0.04866666666666667,0.0013333333333333333,[1],1,random,5,5,10795,4,150,146,attentional-mouselab,26,359584,11
mouselab,True,[],"[[6, 5, 5, 5, 6], [5, 7, 4, 1, 7], [3, 6, 8, 5, 2], [3, 8, 7, 4, 4], [3, 9, 4, 5, 5]]","[[4, 4, 0, 0, 0], [4, 4, 4, 0, 4], [0, 4, 0, 4, 0], [4, 4, 0, 0, 4], [0, 4, 4, 4, 4]]","[2, 2, 7, 11, 8]",16,1,1,0.075,0.075,0.0,[],0,random,5,5,19867,0,226,226,attentional-mouselab,4,153016,12
mouselab,True,[],"[[9, 5, 4, 5, 3], [5, 4, 5, 4, 5], [3, 7, 3, 2, 6], [7, 6, 5, 9, 6], [7, 5, 5, 6, 5]]","[[0, 0, 0, 4, 4], [0, 4, 4, 0, 4], [4, 4, 0, 4, 4], [4, 0, 0, 0, 4], [4, 4, 4, 0, 4]]","[3, 9, 4, 10, 4]",14,2,3,0.058,0.058,0.0,[],0,random,5,5,13611,0,173,173,attentional-mouselab,5,170003,12
mouselab,False,[],"[[6, 3, 3, 6, 4], [4, 7, 4, 5, 4], [3, 3, 5, 6, 2], [7, 6, 5, 4, 7], [3, 7, 5, 4, 3]]","[[4, 0, 0, 0, 4], [0, 4, 0, 4, 4], [4, 4, 0, 4, 0], [4, 4, 0, 4, 4], [4, 0, 0, 4, 4]]","[4, 2, 1, 12, 11]",22,3,2,0.047,0.047,0.0,[],0,greedy,5,5,8864,0,140,140,attentional-mouselab,7,186800,12
mouselab,False,[],"[[6, 5, 6, 3, 5], [4, 6, 5, 4, 2], [3, 5, 3, 5, 2], [4, 7, 9, 8, 9], [9, 7, 6, 7, 7]]","[[4, 4, 0, 4, 4], [4, 4, 0, 4, 4], [0, 4, 0, 4, 4], [0, 0, 0, 0, 4], [0, 4, 4, 0, 4]]","[8, 2, 6, 10, 4]",12,4,2,0.063,0.063,0.0,[],0,random,5,5,8673,0,190,190,attentional-mouselab,8,198241,12
mouselab,False,[],"[[3, 3, 5, 4, 5], [2, 6, 4, 9, 6], [7, 10, 7, 4, 6], [3, 7, 6, 8, 5], [4, 8, 5, 4, 6]]","[[0, 4, 4, 0, 0], [4, 0, 4, 4, 4], [4, 0, 0, 0, 4], [0, 4, 4, 4, 4], [4, 0, 4, 4, 0]]","[9, 8, 1, 10, 2]",18,5,3,0.067,0.067,0.0,[],0,random,5,5,10203,0,200,200,attentional-mouselab,9,211675,12
mouselab,False,[],"[[6, 7, 4, 3, 4], [5, 4, 5, 5, 6], [7, 5, 6, 5, 5], [6, 5, 4, 8, 5], [5, 4, 5, 4, 5]]","[[4, 4, 0, 0, 0], [4, 4, 0, 4, 4], [4, 4, 4, 0, 4], [4, 0, 0, 4, 0], [4, 4, 0, 0, 4]]","[9, 1, 6, 7, 7]",10,6,2,0.047,0.047,0.0,[],0,random,5,5,11653,0,140,140,attentional-mouselab,10,225052,12
mouselab,False,[],"[[5, 7, 3, 4, 4], [7, 8, 5, 7, 3], [7, 6, 7, 5, 2], [5, 5, 5, 2, 8], [4, 5, 5, 5, 5]]","[[0, 4, 4, 4, 0], [4, 4, 4, 4, 4], [4, 0, 0, 4, 4], [4, 0, 0, 0, 4], [0, 4, 4, 0, 0]]","[1, 16, 4, 8, 1]",24,7,2,0.052,0.052,0.0,[],0,random,5,5,10406,0,156,156,attentional-mouselab,11,238718,12
mouselab,False,[],"[[6, 8, 7, 6, 4], [2, 7, 3, 6, 8], [4, 9, 5, 7, 6], [5, 8, 5, 6, 5], [3, 7, 8, 6, 5]]","[[4, 4, 0, 4, 4], [0, 4, 0, 4, 0], [4, 4, 0, 0, 0], [4, 0, 0, 4, 4], [0, 4, 4, 4, 4]]","[5, 3, 7, 4, 11]",12,8,3,0.062,0.062,0.0,[],0,random,5,5,12736,0,187,187,attentional-mouselab,12,254729,12
mouselab,False,[],"[[6, 7, 5, 5, 5], [5, 4, 8, 3, 3], [3, 4, 6, 6, 4], [5, 4, 7, 8, 7], [4, 5, 3, 5, 4]]","[[0, 0, 0, 0, 4], [4, 0, 4, 4, 4], [4, 4, 4, 4, 0], [0, 4, 4, 4, 0], [0, 4, 4, 0, 4]]","[8, 5, 6, 4, 7]",6,9,1,0.05,0.05,0.0,[],0,random,5,5,6063,0,151,151,attentional-mouselab,13,263044,12
mouselab,False,[],"[[5, 9, 5, 6, 5], [4, 3, 4, 5, 4], [6, 2, 5, 6, 7], [4, 7, 5, 9, 5], [3, 5, 7, 9, 4]]","[[4, 4, 4, 0, 0], [4, 4, 4, 0, 4], [4, 4, 4, 0, 0], [4, 4, 0, 0, 4], [0, 0, 4, 0, 4]]","[2, 5, 11, 8, 4]",14,10,4,0.054,0.054,0.0,[],0,greedy,5,5,3565,0,163,163,attentional-mouselab,14,269579,12
mouselab,False,[],"[[5, 5, 5, 5, 4], [3, 6, 5, 6, 6], [4, 4, 5, 5, 6], [6, 5, 4, 4, 4], [6, 4, 5, 8, 3]]","[[0, 0, 0, 4, 4], [0, 4, 0, 4, 0], [4, 4, 4, 0, 0], [4, 4, 0, 4, 4], [4, 0, 4, 4, 4]]","[4, 11, 1, 5, 9]",16,11,4,0.045,0.045,0.0,[],0,random,5,5,10923,0,135,135,attentional-mouselab,15,282348,12
mouselab,False,[],"[[4, 8, 8, 7, 3], [7, 8, 3, 6, 5], [5, 4, 6, 4, 6], [4, 5, 6, 2, 5], [5, 7, 6, 6, 7]]","[[0, 4, 4, 0, 0], [0, 4, 4, 4, 4], [0, 0, 4, 4, 4], [0, 4, 0, 4, 4], [0, 4, 0, 4, 4]]","[1, 2, 2, 9, 16]",26,12,2,0.059,0.059,0.0,[],0,greedy,5,5,5658,0,176,176,attentional-mouselab,16,290594,12
mouselab,False,[],"[[4, 8, 10, 4, 5], [5, 5, 8, 7, 7], [5, 5, 7, 3, 6], [7, 5, 5, 5, 4], [6, 4, 3, 6, 7]]","[[4, 0, 4, 4, 0], [0, 4, 4, 4, 0], [4, 4, 4, 0, 0], [0, 4, 0, 4, 0], [4, 4, 4, 4, 0]]","[5, 5, 5, 9, 6]",6,13,0,0.056,0.056,0.0,[],0,greedy,5,5,10597,0,169,169,attentional-mouselab,17,302959,12
mouselab,False,[],"[[2, 1, 6, 6, 4], [7, 7, 5, 7, 5], [7, 6, 3, 6, 4], [6, 5, 1, 5, 7], [4, 1, 5, 7, 4]]","[[4, 0, 4, 4, 4], [0, 0, 4, 0, 4], [4, 0, 0, 0, 4], [4, 0, 4, 4, 0], [4, 0, 4, 4, 4]]","[9, 3, 9, 2, 7]",14,14,3,0.063,0.063,0.0,[],0,greedy,5,5,17222,0,188,188,attentional-mouselab,18,324233,12
mouselab,False,[],"[[5, 3, 4, 9, 4], [6, 5, 7, 6, 5], [4, 3, 7, 3, 5], [4, 4, 1, 6, 7], [6, 5, 2, 6, 4]]","[[4, 4, 4, 4, 0], [0, 4, 0, 4, 0], [0, 4, 4, 0, 0], [4, 4, 0, 4, 0], [4, 4, 4, 4, 0]]","[12, 2, 2, 1, 13]",26,15,1,0.04,0.04,0.0,[],0,greedy,5,5,8121,0,121,121,attentional-mouselab,19,340321,12
mouselab,False,[],"[[5, 4, 7, 7, 5], [3, 7, 2, 2, 6], [3, 5, 5, 7, 6], [2, 6, 4, 1, 4], [6, 6, 6, 6, 6]]","[[4, 0, 4, 4, 0], [4, 4, 4, 0, 0], [4, 4, 4, 4, 0], [0, 4, 0, 4, 0], [0, 4, 4, 4, 0]]","[4, 8, 9, 7, 2]",12,16,4,0.054,0.054,0.0,[],0,greedy,5,5,6074,0,162,162,attentional-mouselab,20,348196,12
mouselab,False,[],"[[4, 5, 5, 5, 5], [5, 5, 7, 5, 5], [2, 5, 5, 5, 4], [6, 5, 5, 1, 8], [5, 2, 4, 7, 5]]","[[4, 0, 4, 0, 4], [4, 4, 4, 0, 0], [4, 4, 0, 0, 4], [4, 4, 4, 0, 0], [4, 4, 4, 0, 0]]","[12, 2, 2, 7, 7]",16,17,3,0.045,0.045,0.0,[],0,greedy,5,5,11767,0,136,136,attentional-mouselab,21,361258,12
mouselab,False,[],"[[9, 6, 0, 6, 2], [1, 2, 2, 2, 5], [8, 5, 6, 5, 3], [6, 5, 6, 3, 5], [4, 8, 3, 4, 5]]","[[0, 0, 4, 4, 0], [0, 4, 4, 4, 4], [0, 0, 0, 4, 4], [0, 0, 4, 4, 4], [0, 4, 4, 4, 4]]","[7, 11, 7, 2, 3]",14,18,3,0.039,0.039,0.0,[],0,greedy,5,5,9933,0,117,117,attentional-mouselab,22,374679,12
mouselab,False,[],"[[7, 5, 6, 8, 1], [6, 5, 7, 6, 4], [2, 3, 4, 7, 4], [5, 4, 0, 6, 9], [4, 5, 4, 4, 4]]","[[4, 4, 0, 0, 4], [4, 4, 0, 4, 4], [4, 4, 0, 4, 0], [4, 0, 0, 0, 4], [4, 4, 0, 0, 4]]","[10, 7, 3, 6, 4]",10,19,3,0.065,0.065,0.0,[],0,greedy,5,5,7335,0,195,195,attentional-mouselab,23,384365,12
mouselab,False,[],"[[4, 4, 6, 6, 2], [8, 5, 5, 0, 6], [3, 2, 6, 4, 6], [2, 3, 3, 2, 4], [5, 7, 6, 8, 7]]","[[4, 4, 0, 4, 4], [0, 4, 4, 4, 0], [0, 4, 0, 0, 4], [4, 4, 4, 4, 0], [0, 0, 4, 0, 4]]","[1, 8, 4, 13, 4]",18,20,1,0.04,0.04,0.0,[],0,random,5,5,14884,0,119,119,attentional-mouselab,24,402221,12
mouselab,False,[],"[[3, 2, 3, 4, 7], [6, 6, 4, 7, 3], [6, 6, 6, 4, 6], [5, 4, 0, 4, 5], [5, 4, 2, 5, 5]]","[[0, 4, 4, 0, 0], [4, 4, 4, 0, 0], [4, 4, 4, 0, 4], [0, 0, 4, 0, 4], [4, 4, 4, 0, 4]]","[5, 13, 6, 3, 3]",14,21,3,0.054,0.054,0.0,[],0,random,5,5,5207,0,162,162,attentional-mouselab,25,408914,12
mouselab,False,[],"[[3, 5, 7, 6, 8], [5, 3, 4, 3, 6], [4, 4, 2, 8, 7], [6, 3, 6, 4, 5], [5, 7, 6, 4, 3]]","[[4, 4, 4, 0, 4], [0, 4, 0, 4, 0], [4, 0, 4, 4, 0], [4, 4, 4, 0, 4], [4, 0, 0, 0, 4]]","[1, 10, 4, 8, 7]",14,22,3,0.043,0.043,0.0,[],0,random,5,5,22545,0,128,128,attentional-mouselab,26,433922,12
mouselab,True,[],"[[2, 7, 5, 3, 5], [6, 7, 6, 2, 3], [5, 5, 5, 3, 5], [2, 7, 5, 3, 6], [3, 7, 3, 3, 3]]","[[0, 0, 4, 4, 0], [4, 0, 4, 4, 4], [4, 4, 0, 4, 4], [0, 0, 4, 4, 4], [4, 4, 0, 0, 0]]","[6, 7, 7, 9, 1]",10,1,3,0.028,0.028,0.0,[],0,random,5,5,3379,0,83,83,attentional-mouselab,4,75682,13
mouselab,True,[],"[[5, 8, 7, 9, 7], [7, 4, 3, 7, 5], [5, 4, 8, 8, 2], [6, 7, 3, 5, 6], [5, 5, 9, 3, 8]]","[[4, 0, 4, 4, 4], [4, 0, 4, 0, 0], [4, 4, 4, 0, 4], [0, 4, 0, 4, 4], [4, 0, 4, 0, 0]]","[6, 8, 11, 1, 4]",14,2,1,0.05,0.05,0.0,[],0,random,5,5,1788,0,151,151,attentional-mouselab,5,78793,13
mouselab,False,[],"[[4, 5, 4, 5, 5], [5, 6, 7, 4, 8], [6, 5, 7, 4, 3], [6, 6, 4, 5, 4], [5, 4, 4, 7, 7]]","[[0, 4, 4, 0, 4], [4, 4, 0, 0, 4], [4, 0, 4, 0, 4], [0, 4, 4, 0, 4], [0, 4, 4, 0, 4]]","[10, 10, 2, 7, 1]",18,3,4,0.057,0.057,0.0,[],0,greedy,5,5,2269,0,171,171,attentional-mouselab,7,84541,13
mouselab,False,[],"[[6, 7, 8, 4, 5], [6, 4, 5, 7, 5], [7, 7, 6, 5, 6], [6, 9, 2, 3, 8], [2, 2, 6, 5, 6]]","[[4, 4, 0, 4, 4], [4, 4, 0, 4, 4], [4, 4, 0, 4, 4], [0, 0, 0, 4, 0], [4, 4, 0, 0, 0]]","[3, 4, 3, 13, 7]",16,4,1,0.063,0.063,0.0,[],0,greedy,5,5,4192,0,189,189,attentional-mouselab,8,89883,13
mouselab,False,[],"[[6, 6, 5, 8, 5], [7, 6, 9, 7, 7], [4, 5, 1, 4, 7], [3, 4, 5, 6, 5], [5, 7, 5, 6, 2]]","[[0, 4, 4, 4, 4], [0, 4, 4, 4, 4], [0, 0, 4, 0, 4], [0, 0, 4, 4, 4], [0, 4, 4, 0, 0]]","[9, 3, 7, 5, 6]",8,5,2,0.045,0.045,0.0,[],0,greedy,5,5,2858,0,134,134,attentional-mouselab,9,94150,13
mouselab,False,[],"[[8, 6, 4, 5, 7], [4, 6, 6, 5, 5], [3, 6, 4, 5, 2], [8, 6, 2, 4, 3], [8, 4, 7, 9, 8]]","[[0, 4, 4, 4, 0], [4, 4, 4, 0, 4], [0, 4, 4, 4, 4], [0, 0, 4, 4, 0], [0, 0, 4, 4, 0]]","[3, 8, 5, 1, 13]",18,6,0,0.061,0.061,0.0,[],0,random,5,5,1529,0,183,183,attentional-mouselab,10,96839,13
mouselab,False,[],"[[3, 4, 7, 6, 4], [6, 8, 6, 5, 3], [3, 4, 6, 5, 5], [5, 5, 4, 4, 6], [5, 7, 4, 2, 6]]","[[4, 4, 0, 4, 0], [4, 4, 0, 4, 4], [0, 0, 0, 4, 0], [4, 4, 4, 4, 4], [0, 0, 0, 4, 4]]","[3, 12, 3, 7, 5]",14,7,3,0.044,0.044,0.0,[],0,random,5,5,2075,0,131,131,attentional-mouselab,11,99930,13
mouselab,False,[],"[[4, 6, 5, 6, 3], [6, 3, 5, 4, 4], [8, 5, 6, 9, 7], [5, 4, 6, 2, 4], [7, 4, 6, 6, 3]]","[[0, 4, 0, 4, 4], [4, 4, 0, 4, 4], [4, 4, 0, 4, 0], [0, 0, 0, 4, 4], [4, 4, 0, 0, 4]]","[12, 6, 9, 1, 2]",18,8,2,0.054,0.054,0.0,[],0,greedy,5,5,1037,0,162,162,attentional-mouselab,12,101961,13
mouselab,False,[],"[[4, 7, 5, 4, 4], [4, 4, 7, 6, 8], [3, 5, 5, 7, 5], [5, 5, 9, 7, 2], [4, 2, 7, 3, 6]]","[[0, 0, 4, 4, 4], [0, 4, 4, 4, 4], [0, 0, 0, 4, 4], [0, 4, 4, 0, 4], [0, 4, 4, 4, 0]]","[3, 10, 5, 2, 10]",16,9,1,0.039,0.039,0.0,[],0,greedy,5,5,1010,0,116,116,attentional-mouselab,13,103987,13
mouselab,False,[],"[[6, 6, 3, 7, 7], [5, 1, 2, 5, 6], [4, 6, 4, 2, 7], [8, 6, 4, 3, 1], [8, 5, 4, 4, 3]]","[[4, 4, 0, 0, 0], [4, 4, 0, 4, 0], [4, 0, 4, 4, 0], [4, 0, 4, 4, 0], [4, 4, 4, 4, 0]]","[3, 4, 10, 4, 9]",14,10,0,0.061,0.061,0.0,[],0,greedy,5,5,979,0,182,182,attentional-mouselab,14,105919,13
mouselab,False,[],"[[4, 7, 5, 4, 7], [8, 6, 5, 7, 4], [7, 3, 6, 5, 3], [7, 4, 7, 4, 6], [3, 5, 5, 8, 8]]","[[0, 0, 0, 4, 4], [0, 0, 0, 4, 4], [0, 4, 0, 4, 4], [4, 4, 0, 4, 4], [0, 4, 4, 4, 4]]","[3, 2, 1, 16, 8]",24,11,4,0.064,0.064,0.0,[],0,random,5,5,1203,0,192,192,attentional-mouselab,15,108205,13
mouselab,False,[],"[[5, 10, 5, 6, 7], [7, 6, 5, 4, 3], [2, 9, 4, 7, 4], [4, 3, 5, 2, 6], [4, 2, 4, 5, 5]]","[[0, 0, 0, 4, 4], [0, 0, 4, 4, 4], [4, 0, 4, 4, 4], [0, 4, 0, 4, 0], [4, 4, 4, 4, 0]]","[8, 3, 4, 10, 5]",12,12,1,0.058,0.058,0.0,[],0,random,5,5,2898,0,174,174,attentional-mouselab,16,112042,13
mouselab,False,[],"[[5, 6, 6, 3, 4], [4, 8, 4, 7, 6], [8, 5, 5, 6, 5], [5, 3, 3, 6, 6], [7, 6, 7, 3, 4]]","[[4, 4, 4, 0, 4], [0, 0, 0, 0, 4], [4, 4, 4, 0, 0], [4, 4, 0, 4, 4], [4, 4, 0, 0, 4]]","[8, 14, 2, 5, 1]",20,13,4,0.053,0.053,0.0,[],0,random,5,5,2166,0,160,160,attentional-mouselab,17,115259,13
mouselab,False,[],"[[7, 7, 10, 7, 3], [6, 7, 3, 4, 4], [8, 5, 4, 4, 6], [4, 5, 6, 4, 7], [1, 2, 4, 4, 5]]","[[0, 0, 4, 4, 0], [4, 4, 4, 0, 4], [0, 4, 0, 4, 0], [0, 4, 4, 4, 4], [0, 4, 4, 0, 4]]","[11, 7, 9, 1, 2]",18,14,1,0.06,0.06,0.0,[],0,random,5,5,1154,0,180,180,attentional-mouselab,18,117500,13
mouselab,False,[],"[[7, 4, 3, 5, 2], [5, 2, 3, 6, 3], [8, 6, 8, 5, 5], [7, 6, 6, 6, 6], [9, 3, 4, 7, 5]]","[[0, 0, 4, 4, 0], [4, 4, 4, 4, 4], [0, 0, 4, 0, 0], [0, 4, 4, 0, 4], [4, 0, 4, 4, 4]]","[20, 1, 4, 3, 2]",28,15,2,0.04,0.04,0.0,[],0,random,5,5,1122,0,121,121,attentional-mouselab,19,119559,13
mouselab,False,[],"[[4, 6, 6, 5, 6], [5, 5, 6, 6, 5], [4, 3, 6, 6, 3], [8, 5, 3, 2, 5], [6, 6, 5, 6, 5]]","[[0, 4, 0, 4, 0], [0, 4, 4, 4, 4], [0, 4, 4, 4, 0], [0, 4, 0, 4, 4], [0, 0, 4, 4, 4]]","[4, 12, 5, 7, 2]",14,16,0,0.055,0.055,0.0,[],0,greedy,5,5,1024,0,164,164,attentional-mouselab,20,121850,13
mouselab,False,[],"[[4, 6, 5, 2, 5], [4, 4, 3, 6, 6], [1, 8, 6, 4, 5], [8, 6, 3, 6, 4], [3, 3, 6, 3, 2]]","[[4, 0, 0, 4, 0], [4, 4, 4, 0, 4], [0, 0, 4, 0, 4], [4, 0, 4, 0, 4], [4, 4, 4, 0, 4]]","[3, 2, 2, 2, 21]",30,17,4,0.029,0.029,0.0,[],0,random,5,5,1252,0,87,87,attentional-mouselab,21,124136,13
mouselab,False,[],"[[3, 4, 3, 5, 7], [4, 3, 6, 5, 7], [5, 2, 7, 5, 7], [5, 4, 5, 5, 5], [4, 0, 6, 7, 7]]","[[4, 4, 0, 4, 4], [4, 4, 0, 4, 4], [0, 4, 0, 0, 0], [4, 0, 0, 0, 4], [4, 4, 4, 4, 0]]","[3, 7, 12, 6, 2]",14,18,1,0.027,0.027,0.0,[],0,random,5,5,2293,0,81,81,attentional-mouselab,22,127647,13
mouselab,False,[],"[[5, 3, 8, 4, 3], [1, 5, 5, 7, 2], [2, 5, 2, 4, 7], [7, 7, 7, 7, 3], [6, 8, 5, 6, 6]]","[[4, 0, 4, 4, 0], [0, 0, 4, 4, 0], [0, 0, 4, 4, 4], [4, 0, 4, 4, 4], [4, 0, 4, 0, 4]]","[8, 2, 12, 4, 4]",16,19,1,0.051,0.051,0.0,[],0,greedy,5,5,1351,0,154,154,attentional-mouselab,23,131265,13
mouselab,False,[],"[[2, 3, 6, 7, 5], [7, 6, 6, 6, 5], [4, 3, 4, 7, 3], [6, 1, 5, 2, 4], [6, 9, 5, 8, 5]]","[[0, 0, 0, 4, 4], [4, 0, 4, 0, 4], [4, 0, 4, 4, 4], [4, 0, 0, 4, 4], [4, 0, 4, 4, 0]]","[7, 8, 2, 1, 12]",18,20,0,0.052,0.052,0.0,[],0,greedy,5,5,1464,0,156,156,attentional-mouselab,24,133633,13
mouselab,False,[],"[[5, 7, 5, 2, 7], [6, 5, 3, 4, 5], [8, 7, 5, 7, 4], [5, 7, 4, 2, 6], [8, 6, 5, 3, 4]]","[[4, 4, 0, 4, 4], [4, 4, 4, 0, 4], [0, 0, 4, 0, 0], [0, 0, 4, 0, 4], [0, 4, 4, 4, 4]]","[2, 8, 5, 3, 12]",16,21,4,0.047,0.047,0.0,[],0,random,5,5,2172,0,140,140,attentional-mouselab,25,136746,13
mouselab,False,[],"[[3, 9, 5, 1, 6], [6, 7, 7, 3, 5], [5, 4, 2, 5, 6], [5, 5, 2, 5, 5], [4, 6, 4, 6, 7]]","[[0, 0, 4, 4, 4], [0, 0, 0, 4, 4], [4, 0, 4, 4, 4], [0, 0, 4, 4, 0], [4, 0, 4, 4, 4]]","[2, 8, 8, 6, 6]",8,22,2,0.039,0.039,0.0,[],0,greedy,5,5,1764,0,118,118,attentional-mouselab,26,139537,13
mouselab,True,"[23, 23, 23, 23, 22, 22, 22, 22, 12, 12, 12, 12]","[[7, 7, 4, 4, 5], [5, 7, 5, 7, 2], [5, 5, 7, 6, 2], [3, 1, 9, 3, 6], [3, 4, 7, 4, 7]]","[[0, 4, 4, 4, 4], [0, 4, 4, 0, 4], [0, 4, 0, 4, 4], [0, 4, 4, 0, 0], [0, 0, 0, 0, 0]]","[3, 3, 9, 2, 13]",20,1,2,0.066,0.062,0.004,"[23, 22, 12]",3,random,5,5,24030,12,199,187,attentional-mouselab,4,171131,14
mouselab,True,"[22, 22, 22, 22, 11, 11, 11, 11, 10, 10, 10, 10, 14, 14, 14, 14]","[[6, 5, 8, 6, 5], [5, 7, 5, 5, 4], [5, 4, 7, 4, 5], [6, 1, 3, 3, 5], [6, 4, 5, 8, 6]]","[[0, 0, 4, 4, 4], [4, 4, 0, 0, 4], [0, 0, 0, 0, 0], [4, 4, 4, 0, 0], [0, 4, 0, 0, 4]]","[1, 2, 11, 8, 8]",18,2,2,0.053,0.04766666666666666,0.005333333333333333,"[22, 11, 10, 14]",4,random,5,5,22811,16,159,143,attentional-mouselab,5,198671,14
mouselab,False,"[1, 1, 1, 1, 2, 2, 2, 2]","[[3, 6, 9, 2, 7], [7, 5, 7, 5, 4], [3, 5, 5, 4, 3], [6, 4, 7, 3, 5], [7, 4, 6, 5, 5]]","[[0, 0, 0, 4, 4], [0, 0, 4, 0, 4], [0, 4, 4, 0, 0], [0, 4, 0, 4, 4], [0, 4, 4, 4, 4]]","[9, 4, 5, 5, 7]",8,3,2,0.07,0.06733333333333334,0.0026666666666666666,"[1, 2]",2,greedy,5,5,11615,8,211,203,attentional-mouselab,7,214944,14
