type,is_practice,original_item_cost,sale_item_cost,click_values,payoff_matrix,cost_matrix,weights,weights_deviation,trial_num,selected_option,gross_earnings,net_earnings,click_cost,uncovered_values,num_values_revealed,num_options,num_features,reaction_time,points_click_cost,points_action_utility,points_metalevel_reward,sale_type,sale_index,trial_type,trial_index,time_elapsed,highlight_option_value,maximized_highlighted_option,highlight_num_clicks,highlight_weight,participant_id
traffic-light-mouselab,True,3,1,[],"[[2, 4, 5, 6, 6], [4, 5, 6, 6, 4], [7, 3, 4, 7, 4]]","[[1, 1, 1, 1, 1], [3, 3, 3, 3, 3], [3, 3, 3, 3, 3]]","[18, 10, 2]",16,1,1,0.043,0.043,0.0,[],0,5,3,701,0,128,128,hi,0,traffic-light-mouselab,4,13905,4,0,0,18,0
traffic-light-mouselab,True,3,1,[],"[[6, 1, 3, 3, 4], [4, 5, 6, 2, 5], [8, 5, 4, 5, 6]]","[[1, 1, 1, 1, 1], [3, 3, 3, 3, 3], [3, 3, 3, 3, 3]]","[2, 10, 18]",16,2,1,0.047,0.047,0.0,[],0,5,3,498,0,142,142,low,0,traffic-light-mouselab,5,15081,1,0,0,2,0
traffic-light-mouselab,True,3,1,[],"[[2, 6, 4, 4, 6], [2, 4, 9, 2, 3], [4, 6, 4, 5, 6]]","[[3, 3, 3, 3, 3], [3, 3, 3, 3, 3], [1, 1, 1, 1, 1]]","[2, 18, 10]",16,3,0,0.027,0.027,0.0,[],0,5,3,523,0,80,80,medium,2,traffic-light-mouselab,6,16383,4,0,0,10,0
traffic-light-mouselab,False,3,1,[],"[[3, 2, 1, 2, 7], [7, 6, 5, 5, 6], [5, 7, 7, 4, 6]]","[[3, 3, 3, 3, 3], [3, 3, 3, 3, 3], [1, 1, 1, 1, 1]]","[18, 10, 2]",16,4,1,0.037,0.037,0.0,[],0,5,3,901,0,110,110,low,2,traffic-light-mouselab,8,18793,7,1,0,2,0
traffic-light-mouselab,False,3,1,[],"[[7, 3, 4, 9, 4], [6, 4, 5, 5, 4], [5, 4, 7, 3, 3]]","[[3, 3, 3, 3, 3], [1, 1, 1, 1, 1], [3, 3, 3, 3, 3]]","[2, 10, 18]",16,5,1,0.039,0.039,0.0,[],0,5,3,433,0,118,118,medium,1,traffic-light-mouselab,9,19905,4,0,0,10,0
traffic-light-mouselab,False,3,1,[],"[[7, 7, 3, 8, 4], [3, 4, 2, 6, 5], [6, 5, 5, 6, 4]]","[[3, 3, 3, 3, 3], [1, 1, 1, 1, 1], [3, 3, 3, 3, 3]]","[10, 18, 2]",16,6,0,0.045,0.045,0.0,[],0,5,3,715,0,136,136,hi,1,traffic-light-mouselab,10,21267,3,0,0,18,0
traffic-light-mouselab,False,3,1,[],"[[4, 7, 5, 4, 4], [6, 2, 2, 6, 3], [4, 7, 2, 10, 6]]","[[3, 3, 3, 3, 3], [3, 3, 3, 3, 3], [1, 1, 1, 1, 1]]","[18, 10, 2]",16,7,1,0.053,0.053,0.0,[],0,5,3,523,0,160,160,low,2,traffic-light-mouselab,11,22366,7,0,0,2,0
traffic-light-mouselab,False,3,1,[],"[[3, 3, 7, 3, 6], [8, 4, 6, 6, 8], [3, 5, 4, 8, 3]]","[[3, 3, 3, 3, 3], [1, 1, 1, 1, 1], [3, 3, 3, 3, 3]]","[10, 18, 2]",16,8,1,0.037,0.037,0.0,[],0,5,3,458,0,112,112,hi,1,traffic-light-mouselab,12,23519,4,0,0,18,0
traffic-light-mouselab,False,3,1,[],"[[5, 7, 4, 6, 4], [4, 6, 6, 4, 3], [3, 5, 8, 6, 5]]","[[3, 3, 3, 3, 3], [1, 1, 1, 1, 1], [3, 3, 3, 3, 3]]","[18, 10, 2]",16,9,1,0.065,0.065,0.0,[],0,5,3,647,0,196,196,medium,1,traffic-light-mouselab,13,24743,6,1,0,10,0
traffic-light-mouselab,False,3,1,[],"[[5, 5, 5, 8, 9], [7, 4, 2, 2, 7], [8, 2, 5, 5, 5]]","[[3, 3, 3, 3, 3], [3, 3, 3, 3, 3], [1, 1, 1, 1, 1]]","[18, 10, 2]",16,10,1,0.045,0.045,0.0,[],0,5,3,1543,0,134,134,low,2,traffic-light-mouselab,14,26908,2,0,0,2,0
traffic-light-mouselab,False,3,1,[],"[[5, 5, 7, 4, 4], [1, 1, 4, 4, 6], [3, 6, 3, 7, 2]]","[[1, 1, 1, 1, 1], [3, 3, 3, 3, 3], [3, 3, 3, 3, 3]]","[2, 18, 10]",16,11,1,0.029,0.029,0.0,[],0,5,3,772,0,88,88,low,0,traffic-light-mouselab,15,28329,5,0,0,2,0
traffic-light-mouselab,False,3,1,[],"[[4, 5, 5, 1, 2], [8, 9, 5, 3, 4], [3, 6, 7, 5, 3]]","[[3, 3, 3, 3, 3], [3, 3, 3, 3, 3], [1, 1, 1, 1, 1]]","[10, 18, 2]",16,12,1,0.075,0.075,0.0,[],0,5,3,500,0,224,224,low,2,traffic-light-mouselab,16,29345,6,0,0,2,0
traffic-light-mouselab,False,3,1,[],"[[6, 4, 7, 6, 5], [6, 6, 9, 3, 4], [6, 5, 8, 3, 4]]","[[3, 3, 3, 3, 3], [1, 1, 1, 1, 1], [3, 3, 3, 3, 3]]","[2, 10, 18]",16,13,1,0.053,0.053,0.0,[],0,5,3,665,0,158,158,medium,1,traffic-light-mouselab,17,30703,6,0,0,10,0
traffic-light-mouselab,False,3,1,[],"[[8, 5, 7, 4, 4], [4, 8, 4, 6, 5], [2, 7, 6, 4, 3]]","[[1, 1, 1, 1, 1], [3, 3, 3, 3, 3], [3, 3, 3, 3, 3]]","[10, 2, 18]",16,14,1,0.064,0.064,0.0,[],0,5,3,721,0,192,192,medium,0,traffic-light-mouselab,18,32109,5,0,0,10,0
traffic-light-mouselab,False,3,1,[],"[[7, 4, 5, 5, 6], [7, 6, 4, 4, 3], [7, 5, 3, 5, 4]]","[[3, 3, 3, 3, 3], [3, 3, 3, 3, 3], [1, 1, 1, 1, 1]]","[10, 18, 2]",16,15,1,0.053,0.053,0.0,[],0,5,3,806,0,158,158,low,2,traffic-light-mouselab,19,33479,5,0,0,2,0
traffic-light-mouselab,False,3,1,[],"[[5, 4, 2, 4, 4], [5, 3, 5, 5, 5], [6, 2, 6, 7, 7]]","[[3, 3, 3, 3, 3], [3, 3, 3, 3, 3], [1, 1, 1, 1, 1]]","[2, 10, 18]",16,16,1,0.025,0.025,0.0,[],0,5,3,611,0,74,74,hi,2,traffic-light-mouselab,20,34736,2,0,0,18,0
traffic-light-mouselab,False,3,1,[],"[[4, 4, 8, 3, 4], [5, 7, 7, 7, 5], [2, 3, 1, 3, 4]]","[[3, 3, 3, 3, 3], [1, 1, 1, 1, 1], [3, 3, 3, 3, 3]]","[10, 2, 18]",16,17,1,0.036,0.036,0.0,[],0,5,3,677,0,108,108,low,1,traffic-light-mouselab,21,36014,7,1,0,2,0
traffic-light-mouselab,False,3,1,[],"[[5, 6, 4, 6, 3], [6, 9, 3, 4, 2], [3, 9, 7, 5, 5]]","[[3, 3, 3, 3, 3], [3, 3, 3, 3, 3], [1, 1, 1, 1, 1]]","[2, 10, 18]",16,18,1,0.088,0.088,0.0,[],0,5,3,628,0,264,264,hi,2,traffic-light-mouselab,22,37335,9,1,0,18,0
traffic-light-mouselab,False,3,1,[],"[[7, 7, 5, 5, 4], [4, 7, 7, 3, 5], [7, 5, 4, 7, 9]]","[[3, 3, 3, 3, 3], [3, 3, 3, 3, 3], [1, 1, 1, 1, 1]]","[2, 10, 18]",16,19,1,0.058,0.058,0.0,[],0,5,3,635,0,174,174,hi,2,traffic-light-mouselab,23,38540,5,0,0,18,0
traffic-light-mouselab,False,3,1,[],"[[4, 4, 4, 7, 2], [5, 3, 2, 5, 6], [6, 3, 7, 7, 6]]","[[3, 3, 3, 3, 3], [3, 3, 3, 3, 3], [1, 1, 1, 1, 1]]","[2, 10, 18]",16,20,1,0.031,0.031,0.0,[],0,5,3,523,0,92,92,hi,2,traffic-light-mouselab,24,39548,3,0,0,18,0
traffic-light-mouselab,False,3,1,[],"[[5, 5, 4, 4, 4], [4, 7, 5, 4, 3], [7, 4, 6, 4, 2]]","[[3, 3, 3, 3, 3], [1, 1, 1, 1, 1], [3, 3, 3, 3, 3]]","[2, 10, 18]",16,21,1,0.051,0.051,0.0,[],0,5,3,486,0,152,152,medium,1,traffic-light-mouselab,25,40794,7,1,0,10,0
traffic-light-mouselab,False,3,1,[],"[[7, 6, 6, 3, 7], [5, 6, 7, 6, 3], [8, 5, 4, 4, 5]]","[[3, 3, 3, 3, 3], [3, 3, 3, 3, 3], [1, 1, 1, 1, 1]]","[10, 18, 2]",16,22,1,0.059,0.059,0.0,[],0,5,3,564,0,178,178,low,2,traffic-light-mouselab,26,41998,5,0,0,2,0
traffic-light-mouselab,False,3,1,[],"[[3, 5, 5, 3, 5], [2, 3, 2, 7, 5], [8, 5, 9, 4, 6]]","[[3, 3, 3, 3, 3], [3, 3, 3, 3, 3], [1, 1, 1, 1, 1]]","[2, 18, 10]",16,23,1,0.038,0.038,0.0,[],0,5,3,554,0,114,114,medium,2,traffic-light-mouselab,27,43727,5,0,0,10,0
traffic-light-mouselab,False,3,1,[],"[[7, 4, 9, 6, 6], [4, 5, 5, 5, 8], [5, 5, 6, 6, 1]]","[[1, 1, 1, 1, 1], [3, 3, 3, 3, 3], [3, 3, 3, 3, 3]]","[2, 10, 18]",16,24,1,0.049,0.049,0.0,[],0,5,3,493,0,148,148,low,0,traffic-light-mouselab,28,45128,4,0,0,2,0
traffic-light-mouselab,False,3,1,[],"[[5, 4, 6, 6, 5], [9, 6, 6, 3, 5], [3, 8, 4, 4, 4]]","[[3, 3, 3, 3, 3], [3, 3, 3, 3, 3], [1, 1, 1, 1, 1]]","[10, 2, 18]",16,25,1,0.065,0.065,0.0,[],0,5,3,614,0,196,196,hi,2,traffic-light-mouselab,29,46587,8,1,0,18,0
traffic-light-mouselab,False,3,1,[1],"[[4, 7, 5, 4, 4], [4, 5, 4, 6, 4], [8, 1, 6, 6, 4]]","[[3, 2, 3, 3, 3], [1, 1, 1, 1, 1], [3, 3, 3, 3, 3]]","[10, 18, 2]",16,26,1,0.054,0.05366666666666667,0.0003333333333333333,[],0,5,3,966,1,162,161,hi,1,traffic-light-mouselab,30,48216,5,0,0,18,0
traffic-light-mouselab,False,3,1,[],"[[1, 4, 2, 2, 6], [4, 6, 5, 6, 5], [6, 5, 4, 6, 1]]","[[1, 1, 1, 1, 1], [3, 3, 3, 3, 3], [3, 3, 3, 3, 3]]","[18, 10, 2]",16,27,1,0.047,0.047,0.0,[],0,5,3,594,0,142,142,hi,0,traffic-light-mouselab,31,50044,4,0,0,18,0
traffic-light-mouselab,False,3,1,[],"[[8, 6, 7, 5, 4], [1, 5, 6, 6, 5], [4, 6, 7, 3, 1]]","[[3, 3, 3, 3, 3], [1, 1, 1, 1, 1], [3, 3, 3, 3, 3]]","[2, 10, 18]",16,28,1,0.057,0.057,0.0,[],0,5,3,742,0,170,170,medium,1,traffic-light-mouselab,32,51560,5,0,0,10,0
traffic-light-mouselab,False,3,1,[],"[[6, 6, 9, 10, 3], [6, 9, 6, 6, 8], [3, 3, 6, 5, 3]]","[[1, 1, 1, 1, 1], [3, 3, 3, 3, 3], [3, 3, 3, 3, 3]]","[2, 10, 18]",16,29,1,0.052,0.052,0.0,[],0,5,3,530,0,156,156,low,0,traffic-light-mouselab,33,52664,6,0,0,2,0
traffic-light-mouselab,False,3,1,[],"[[6, 1, 4, 4, 7], [5, 6, 5, 7, 4], [4, 6, 7, 6, 6]]","[[1, 1, 1, 1, 1], [3, 3, 3, 3, 3], [3, 3, 3, 3, 3]]","[10, 2, 18]",16,30,1,0.043,0.043,0.0,[],0,5,3,758,0,130,130,medium,0,traffic-light-mouselab,34,54122,1,0,0,10,0
traffic-light-mouselab,False,3,1,[],"[[4, 7, 4, 6, 8], [5, 2, 5, 5, 5], [4, 5, 7, 3, 10]]","[[3, 3, 3, 3, 3], [1, 1, 1, 1, 1], [3, 3, 3, 3, 3]]","[2, 10, 18]",16,31,1,0.041,0.041,0.0,[],0,5,3,992,0,124,124,medium,1,traffic-light-mouselab,35,55798,2,0,0,10,0
traffic-light-mouselab,False,3,1,[],"[[7, 5, 5, 7, 7], [4, 6, 3, 3, 4], [6, 4, 3, 8, 5]]","[[1, 1, 1, 1, 1], [3, 3, 3, 3, 3], [3, 3, 3, 3, 3]]","[18, 2, 10]",16,32,2,0.042,0.042,0.0,[],0,5,3,538,0,126,126,hi,0,traffic-light-mouselab,36,56902,5,0,0,18,0
traffic-light-mouselab,False,3,1,[],"[[3, 5, 3, 4, 8], [7, 3, 5, 4, 4], [4, 4, 2, 7, 3]]","[[1, 1, 1, 1, 1], [3, 3, 3, 3, 3], [3, 3, 3, 3, 3]]","[10, 18, 2]",16,33,2,0.041,0.041,0.0,[],0,5,3,833,0,124,124,medium,0,traffic-light-mouselab,37,58502,3,0,0,10,0
traffic-light-mouselab,True,3,1,"[7, 7, 7, 11]","[[5, 5, 5, 4, 6], [6, 3, 5, 9, 6], [4, 7, 9, 2, 5]]","[[3, 3, 3, 3, 3], [3, 3, 0, 3, 3], [1, 0, 1, 1, 1]]","[18, 2, 10]",16,1,1,0.055,0.05366666666666667,0.0013333333333333333,"[7, 11]",2,5,3,24107,4,166,162,medium,2,traffic-light-mouselab,4,256991,7,0,1,10,1
traffic-light-mouselab,True,3,1,"[0, 4]","[[8, 9, 4, 7, 7], [4, 7, 1, 6, 9], [4, 5, 5, 3, 8]]","[[0, 1, 1, 1, 0], [3, 3, 3, 3, 3], [3, 3, 3, 3, 3]]","[18, 10, 2]",16,2,0,0.064,0.06333333333333334,0.0006666666666666666,"[0, 4]",2,5,3,6773,2,192,190,hi,0,traffic-light-mouselab,5,269598,8,0,2,18,1
traffic-light-mouselab,True,3,1,"[1, 3]","[[3, 3, 8, 4, 3], [2, 8, 5, 8, 6], [6, 6, 4, 4, 1]]","[[1, 0, 1, 0, 1], [3, 3, 3, 3, 3], [3, 3, 3, 3, 3]]","[2, 10, 18]",16,3,2,0.046,0.04533333333333333,0.0006666666666666666,"[1, 3]",2,5,3,4602,2,138,136,low,0,traffic-light-mouselab,6,276926,8,1,2,2,1
traffic-light-mouselab,False,3,1,"[0, 2]","[[6, 2, 4, 2, 3], [8, 5, 5, 5, 8], [5, 5, 5, 6, 2]]","[[0, 1, 0, 1, 1], [3, 3, 3, 3, 3], [3, 3, 3, 3, 3]]","[18, 10, 2]",16,4,0,0.066,0.06533333333333334,0.0006666666666666666,"[0, 2]",2,5,3,5483,2,198,196,hi,0,traffic-light-mouselab,8,289888,6,1,2,18,1
traffic-light-mouselab,False,3,1,"[8, 8, 8, 0]","[[6, 5, 6, 8, 2], [6, 6, 1, 1, 3], [8, 3, 10, 8, 10]]","[[0, 1, 1, 1, 1], [3, 3, 3, 0, 3], [3, 3, 3, 3, 3]]","[2, 18, 10]",16,5,1,0.049,0.04766666666666667,0.0013333333333333333,"[8, 0]",2,5,3,11671,4,148,144,low,0,traffic-light-mouselab,9,305278,5,0,1,2,1
traffic-light-mouselab,False,3,1,"[4, 4, 4, 11]","[[6, 4, 6, 3, 4], [6, 4, 4, 8, 4], [4, 7, 6, 5, 7]]","[[3, 3, 3, 3, 0], [3, 3, 3, 3, 3], [1, 0, 1, 1, 1]]","[18, 10, 2]",16,6,1,0.042,0.04066666666666667,0.0013333333333333333,"[4, 11]",2,5,3,7757,4,126,122,low,2,traffic-light-mouselab,10,315802,7,1,1,2,1
traffic-light-mouselab,False,3,1,"[10, 0, 2, 3, 1]","[[6, 8, 6, 3, 8], [8, 8, 5, 7, 2], [3, 6, 5, 4, 3]]","[[0, 0, 0, 0, 1], [3, 3, 3, 3, 3], [2, 3, 3, 3, 3]]","[18, 10, 2]",16,7,1,0.079,0.07733333333333334,0.0016666666666666668,"[0, 2, 3, 1]",4,5,3,10255,5,236,231,hi,0,traffic-light-mouselab,11,330948,8,1,4,18,1
traffic-light-mouselab,False,3,1,"[5, 7]","[[6, 5, 9, 3, 7], [2, 5, 7, 4, 6], [2, 6, 7, 4, 3]]","[[3, 3, 3, 3, 3], [0, 1, 0, 1, 1], [3, 3, 3, 3, 3]]","[2, 18, 10]",16,8,2,0.071,0.07033333333333333,0.0006666666666666666,"[5, 7]",2,5,3,4445,2,214,212,hi,1,traffic-light-mouselab,12,337332,7,1,2,18,1
traffic-light-mouselab,False,3,1,"[6, 9, 7]","[[4, 5, 7, 2, 6], [5, 3, 7, 3, 4], [6, 4, 2, 8, 5]]","[[3, 3, 3, 3, 3], [1, 0, 0, 1, 0], [3, 3, 3, 3, 3]]","[2, 10, 18]",16,9,2,0.04,0.039,0.001,"[6, 9, 7]",3,5,3,5303,3,120,117,medium,1,traffic-light-mouselab,13,345238,7,1,3,10,1
traffic-light-mouselab,False,3,1,"[5, 7, 9, 6, 8]","[[6, 8, 2, 4, 8], [6, 5, 6, 8, 5], [6, 6, 10, 4, 7]]","[[3, 3, 3, 3, 3], [0, 0, 0, 0, 0], [3, 3, 3, 3, 3]]","[2, 18, 10]",16,10,3,0.064,0.06233333333333334,0.0016666666666666668,"[5, 7, 9, 6, 8]",5,5,3,9271,5,192,187,hi,1,traffic-light-mouselab,14,356284,8,1,5,18,1
traffic-light-mouselab,False,3,1,[10],"[[4, 7, 4, 6, 5], [4, 6, 4, 7, 3], [8, 5, 6, 5, 5]]","[[3, 3, 3, 3, 3], [3, 3, 3, 3, 3], [0, 1, 1, 1, 1]]","[2, 10, 18]",16,11,0,0.064,0.06366666666666666,0.0003333333333333333,[10],1,5,3,3351,1,192,191,hi,2,traffic-light-mouselab,15,361909,8,1,1,18,1
traffic-light-mouselab,False,3,1,"[0, 2, 3]","[[4, 4, 7, 6, 5], [8, 3, 5, 5, 5], [6, 3, 2, 2, 7]]","[[0, 1, 0, 0, 1], [3, 3, 3, 3, 3], [3, 3, 3, 3, 3]]","[18, 10, 2]",16,12,2,0.06,0.059,0.001,"[0, 2, 3]",3,5,3,4952,3,180,177,hi,0,traffic-light-mouselab,16,368744,7,1,3,18,1
traffic-light-mouselab,False,3,1,"[5, 5, 5]","[[3, 7, 4, 6, 5], [7, 8, 5, 4, 7], [6, 5, 2, 8, 8]]","[[3, 3, 3, 3, 3], [0, 3, 3, 3, 3], [1, 1, 1, 1, 1]]","[10, 18, 2]",16,13,0,0.056,0.055,0.001,[5],1,5,3,4454,3,168,165,low,2,traffic-light-mouselab,17,374728,6,0,0,2,1
traffic-light-mouselab,False,3,1,"[2, 2, 2, 7]","[[5, 5, 8, 6, 7], [3, 7, 6, 7, 6], [6, 4, 5, 4, 4]]","[[3, 3, 0, 3, 3], [1, 1, 0, 1, 1], [3, 3, 3, 3, 3]]","[18, 10, 2]",16,14,2,0.071,0.06966666666666665,0.0013333333333333333,"[2, 7]",2,5,3,5492,4,214,210,medium,1,traffic-light-mouselab,18,382097,6,0,1,10,1
traffic-light-mouselab,False,3,1,"[1, 3]","[[5, 3, 5, 5, 6], [1, 3, 7, 4, 5], [8, 7, 6, 3, 4]]","[[1, 0, 1, 0, 1], [3, 3, 3, 3, 3], [3, 3, 3, 3, 3]]","[18, 2, 10]",16,15,2,0.055,0.05433333333333333,0.0006666666666666666,"[1, 3]",2,5,3,4803,2,164,162,hi,0,traffic-light-mouselab,19,389020,5,0,2,18,1
traffic-light-mouselab,False,3,1,"[2, 11, 11, 11]","[[4, 5, 4, 3, 2], [5, 4, 6, 5, 5], [3, 3, 6, 3, 3]]","[[1, 1, 0, 1, 1], [3, 3, 3, 3, 3], [3, 0, 3, 3, 3]]","[10, 2, 18]",16,16,3,0.031,0.029666666666666668,0.0013333333333333333,"[2, 11]",2,5,3,7224,4,94,90,medium,0,traffic-light-mouselab,20,397987,3,0,1,10,1
traffic-light-mouselab,False,3,1,"[0, 0, 0, 3, 3, 3]","[[6, 7, 4, 4, 6], [6, 4, 5, 8, 4], [8, 5, 4, 6, 5]]","[[0, 3, 3, 0, 3], [3, 3, 3, 3, 3], [1, 1, 1, 1, 1]]","[18, 10, 2]",16,17,0,0.061,0.059,0.002,"[0, 3]",2,5,3,8123,6,184,178,low,2,traffic-light-mouselab,21,407549,8,1,0,2,1
traffic-light-mouselab,False,3,1,"[1, 1, 1]","[[8, 7, 4, 5, 6], [4, 4, 1, 4, 3], [5, 4, 7, 3, 7]]","[[3, 0, 3, 3, 3], [3, 3, 3, 3, 3], [1, 1, 1, 1, 1]]","[18, 10, 2]",16,18,1,0.058,0.057,0.001,[1],1,5,3,3700,3,174,171,low,2,traffic-light-mouselab,22,412549,4,0,0,2,1
traffic-light-mouselab,False,3,1,"[12, 12, 12, 10, 10, 10]","[[4, 6, 7, 4, 6], [4, 5, 7, 7, 6], [4, 4, 4, 6, 6]]","[[3, 3, 3, 3, 3], [1, 1, 1, 1, 1], [0, 3, 0, 3, 3]]","[10, 2, 18]",16,19,1,0.047,0.045,0.002,"[12, 10]",2,5,3,7364,6,142,136,low,1,traffic-light-mouselab,23,421313,5,0,0,2,1
traffic-light-mouselab,False,3,1,"[1, 3, 2, 0, 4]","[[4, 4, 2, 3, 7], [7, 4, 8, 7, 4], [4, 4, 6, 6, 4]]","[[0, 0, 0, 0, 0], [3, 3, 3, 3, 3], [3, 3, 3, 3, 3]]","[10, 2, 18]",16,20,4,0.05,0.04833333333333334,0.0016666666666666668,"[1, 3, 2, 0, 4]",5,5,3,6320,5,150,145,medium,0,traffic-light-mouselab,24,429353,7,1,5,10,1
traffic-light-mouselab,False,3,1,"[1, 1, 1, 3, 3, 3]","[[7, 3, 4, 2, 3], [4, 6, 6, 6, 4], [4, 3, 6, 6, 4]]","[[3, 0, 3, 0, 3], [3, 3, 3, 3, 3], [1, 1, 1, 1, 1]]","[18, 10, 2]",16,21,2,0.048,0.046,0.002,"[1, 3]",2,5,3,5312,6,144,138,low,2,traffic-light-mouselab,25,435963,6,1,0,2,1
traffic-light-mouselab,False,3,1,"[10, 10, 10]","[[6, 3, 2, 5, 7], [4, 7, 7, 6, 7], [6, 2, 8, 3, 6]]","[[1, 1, 1, 1, 1], [3, 3, 3, 3, 3], [0, 3, 3, 3, 3]]","[2, 10, 18]",16,22,0,0.053,0.052,0.001,[10],1,5,3,3140,3,160,157,low,0,traffic-light-mouselab,26,441345,6,0,0,2,1
traffic-light-mouselab,False,3,1,[11],"[[5, 7, 6, 8, 6], [3, 4, 4, 6, 2], [5, 7, 4, 3, 2]]","[[3, 3, 3, 3, 3], [3, 3, 3, 3, 3], [1, 0, 1, 1, 1]]","[2, 18, 10]",16,23,1,0.052,0.051666666666666666,0.0003333333333333333,[11],1,5,3,2749,1,156,155,medium,2,traffic-light-mouselab,27,445415,7,1,1,10,1
traffic-light-mouselab,False,3,1,"[1, 1, 1]","[[3, 7, 5, 4, 4], [2, 5, 4, 3, 7], [6, 8, 6, 4, 5]]","[[3, 0, 3, 3, 3], [3, 3, 3, 3, 3], [1, 1, 1, 1, 1]]","[18, 2, 10]",16,24,1,0.072,0.071,0.001,[1],1,5,3,3647,3,216,213,medium,2,traffic-light-mouselab,28,450493,8,1,0,10,1
traffic-light-mouselab,False,3,1,"[1, 3]","[[5, 5, 4, 8, 7], [5, 3, 6, 4, 6], [1, 7, 6, 2, 6]]","[[1, 0, 1, 0, 1], [3, 3, 3, 3, 3], [3, 3, 3, 3, 3]]","[18, 2, 10]",16,25,3,0.057,0.05633333333333333,0.0006666666666666666,"[1, 3]",2,5,3,4272,2,172,170,hi,0,traffic-light-mouselab,29,457234,8,1,2,18,1
traffic-light-mouselab,False,3,1,"[5, 8]","[[9, 2, 8, 5, 5], [6, 6, 6, 4, 6], [6, 3, 6, 6, 3]]","[[3, 3, 3, 3, 3], [0, 1, 1, 0, 1], [3, 3, 3, 3, 3]]","[2, 10, 18]",16,26,0,0.062,0.06133333333333333,0.0006666666666666666,"[5, 8]",2,5,3,3529,2,186,184,medium,1,traffic-light-mouselab,30,462765,6,1,2,10,1
traffic-light-mouselab,False,3,1,"[1, 3]","[[4, 5, 2, 8, 4], [5, 4, 6, 5, 5], [2, 6, 4, 6, 5]]","[[1, 0, 1, 0, 1], [3, 3, 3, 3, 3], [3, 3, 3, 3, 3]]","[18, 2, 10]",16,27,3,0.071,0.07033333333333333,0.0006666666666666666,"[1, 3]",2,5,3,3408,2,214,212,hi,0,traffic-light-mouselab,31,468109,8,1,2,18,1
traffic-light-mouselab,False,3,1,"[5, 5, 5]","[[3, 2, 5, 3, 8], [5, 8, 5, 3, 6], [6, 7, 3, 3, 5]]","[[1, 1, 1, 1, 1], [0, 3, 3, 3, 3], [3, 3, 3, 3, 3]]","[2, 18, 10]",16,28,2,0.043,0.041999999999999996,0.001,[5],1,5,3,5305,3,130,127,low,0,traffic-light-mouselab,32,475601,5,0,0,2,1
traffic-light-mouselab,False,3,1,"[1, 3]","[[4, 2, 5, 6, 5], [3, 7, 3, 6, 6], [5, 5, 5, 6, 5]]","[[1, 0, 1, 0, 1], [3, 3, 3, 3, 3], [3, 3, 3, 3, 3]]","[10, 2, 18]",16,29,3,0.06,0.05933333333333333,0.0006666666666666666,"[1, 3]",2,5,3,3117,2,180,178,medium,0,traffic-light-mouselab,33,480819,6,1,2,10,1
traffic-light-mouselab,False,3,1,"[0, 0, 0]","[[7, 2, 7, 7, 5], [6, 4, 5, 4, 7], [5, 3, 6, 4, 6]]","[[0, 3, 3, 3, 3], [3, 3, 3, 3, 3], [1, 1, 1, 1, 1]]","[18, 10, 2]",16,30,0,0.065,0.064,0.001,[0],1,5,3,3273,3,196,193,low,2,traffic-light-mouselab,34,485719,5,0,0,2,1
traffic-light-mouselab,False,3,1,"[6, 5, 8, 7, 9]","[[4, 5, 6, 3, 5], [6, 6, 3, 4, 4], [2, 7, 4, 8, 0]]","[[3, 3, 3, 3, 3], [0, 0, 0, 0, 0], [3, 3, 3, 3, 3]]","[10, 18, 2]",16,31,1,0.057,0.05533333333333334,0.0016666666666666668,"[6, 5, 8, 7, 9]",5,5,3,5881,5,172,167,hi,1,traffic-light-mouselab,35,493757,6,1,5,18,1
traffic-light-mouselab,False,3,1,"[10, 12, 11]","[[5, 7, 5, 3, 6], [2, 9, 3, 7, 5], [5, 6, 1, 4, 8]]","[[3, 3, 3, 3, 3], [3, 3, 3, 3, 3], [0, 0, 0, 1, 1]]","[2, 18, 10]",16,32,1,0.079,0.078,0.001,"[10, 12, 11]",3,5,3,4912,3,236,233,medium,2,traffic-light-mouselab,36,500835,6,0,3,10,1
traffic-light-mouselab,False,3,1,"[1, 6, 6, 6]","[[2, 6, 5, 5, 3], [8, 4, 6, 6, 3], [5, 6, 6, 3, 5]]","[[1, 0, 1, 1, 1], [3, 0, 3, 3, 3], [3, 3, 3, 3, 3]]","[10, 18, 2]",16,33,2,0.057,0.05566666666666667,0.0013333333333333333,"[1, 6]",2,5,3,5358,4,170,166,medium,0,traffic-light-mouselab,37,508162,5,0,1,10,1
traffic-light-mouselab,True,3,1,[],"[[4, 5, 6, 7, 9], [3, 8, 5, 7, 8], [2, 5, 4, 5, 4]]","[[1, 1, 1, 1, 1], [3, 3, 3, 3, 3], [3, 3, 3, 3, 3]]","[2, 18, 10]",16,1,0,0.027,0.027,0.0,[],0,5,3,9234,0,82,82,low,0,traffic-light-mouselab,4,299496,4,0,0,2,2
traffic-light-mouselab,True,3,1,"[5, 6, 7, 8, 9, 0, 0, 0, 1, 1, 1, 2, 2, 2, 3, 3, 3, 4, 4, 4, 14, 14, 14, 12, 12, 12, 10, 10, 10]","[[5, 4, 6, 3, 8], [6, 3, 5, 5, 5], [3, 5, 4, 5, 5]]","[[0, 0, 0, 0, 0], [0, 0, 0, 0, 0], [0, 3, 0, 3, 0]]","[2, 10, 18]",16,2,4,0.052,0.042333333333333334,0.009666666666666667,"[5, 6, 7, 8, 9, 0, 1, 2, 3, 4, 14, 12, 10]",13,5,3,61349,29,156,127,medium,1,traffic-light-mouselab,5,369572,5,0,5,10,2
traffic-light-mouselab,True,3,1,"[5, 5, 5, 6, 7, 8, 9, 3, 3, 3, 1, 1, 1, 2, 2, 2, 4, 4, 4, 11, 11, 11]","[[4, 8, 6, 1, 6], [2, 6, 5, 9, 6], [8, 5, 3, 2, 7]]","[[3, 0, 0, 0, 0], [0, 0, 0, 0, 0], [3, 0, 3, 3, 3]]","[10, 18, 2]",16,3,1,0.066,0.059333333333333335,0.006666666666666667,"[5, 6, 7, 8, 9, 3, 1, 2, 4, 11]",10,5,3,46578,20,198,178,hi,1,traffic-light-mouselab,6,420437,6,0,7,18,2
traffic-light-mouselab,False,3,1,"[0, 1, 2, 3, 4, 13, 13, 13, 11, 11, 11, 10, 10, 10, 14, 14, 14]","[[6, 7, 4, 8, 5], [5, 6, 2, 3, 5], [3, 6, 6, 4, 10]]","[[0, 0, 0, 0, 0], [3, 3, 3, 3, 3], [0, 0, 3, 0, 0]]","[18, 2, 10]",16,4,4,0.067,0.06133333333333334,0.005666666666666667,"[0, 1, 2, 3, 4, 13, 11, 10, 14]",9,5,3,75700,17,200,183,hi,0,traffic-light-mouselab,8,507030,5,0,5,18,2
traffic-light-mouselab,False,3,1,"[5, 6, 7, 8, 9, 0, 0, 0, 1, 1, 1, 4, 4, 4, 3, 3, 3]","[[7, 5, 4, 3, 6], [6, 6, 4, 5, 6], [7, 2, 5, 3, 3]]","[[0, 0, 3, 0, 0], [0, 0, 0, 0, 0], [3, 3, 3, 3, 3]]","[10, 18, 2]",16,5,0,0.064,0.058333333333333334,0.005666666666666667,"[5, 6, 7, 8, 9, 0, 1, 4, 3]",9,5,3,29820,17,192,175,hi,1,traffic-light-mouselab,9,543114,6,1,5,18,2
traffic-light-mouselab,False,3,1,"[0, 1, 2, 3, 4, 5, 5, 5, 9, 9, 9, 8, 8, 8, 7, 7, 7, 6, 6, 6]","[[7, 5, 5, 6, 7], [6, 5, 9, 5, 7], [4, 1, 7, 6, 4]]","[[0, 0, 0, 0, 0], [0, 0, 0, 0, 0], [3, 3, 3, 3, 3]]","[10, 18, 2]",16,6,2,0.075,0.06833333333333333,0.006666666666666667,"[0, 1, 2, 3, 4, 5, 9, 8, 7, 6]",10,5,3,54547,20,226,206,medium,0,traffic-light-mouselab,10,604033,5,0,5,10,2
traffic-light-mouselab,False,3,1,"[0, 0, 0, 1, 1, 1, 2, 2, 2, 3, 3, 3, 4, 4, 4, 9, 9, 9, 8, 8, 8, 7, 7, 7, 6, 6, 6, 5, 5, 5]","[[6, 3, 6, 4, 9], [7, 5, 3, 4, 4], [5, 7, 6, 4, 5]]","[[0, 0, 0, 0, 0], [0, 0, 0, 0, 0], [1, 1, 1, 1, 1]]","[18, 10, 2]",16,7,4,0.071,0.06099999999999999,0.01,"[0, 1, 2, 3, 4, 9, 8, 7, 6, 5]",10,5,3,29550,30,212,182,low,2,traffic-light-mouselab,11,636745,5,0,0,2,2
traffic-light-mouselab,False,3,1,"[0, 1, 2, 3, 4, 10, 10, 10, 11, 11, 11, 12, 12, 12, 13, 13, 13, 14, 14, 14]","[[7, 5, 6, 6, 6], [6, 5, 7, 7, 8], [3, 8, 5, 7, 6]]","[[0, 0, 0, 0, 0], [3, 3, 3, 3, 3], [0, 0, 0, 0, 0]]","[18, 2, 10]",16,8,3,0.064,0.05733333333333333,0.006666666666666667,"[0, 1, 2, 3, 4, 10, 11, 12, 13, 14]",10,5,3,83480,20,192,172,hi,0,traffic-light-mouselab,12,723908,6,0,5,18,2
traffic-light-mouselab,False,3,1,"[0, 0, 0, 1, 1, 1, 2, 2, 2, 3, 3, 3, 4, 4, 4, 7, 7, 7, 8, 8, 8, 6, 6, 6]","[[2, 4, 5, 5, 2], [6, 7, 1, 4, 4], [5, 6, 5, 6, 1]]","[[0, 0, 0, 0, 0], [3, 0, 0, 0, 3], [1, 1, 1, 1, 1]]","[18, 10, 2]",16,9,1,0.051,0.043,0.008,"[0, 1, 2, 3, 4, 7, 8, 6]",8,5,3,56044,24,154,130,low,2,traffic-light-mouselab,13,782804,6,1,0,2,2
traffic-light-mouselab,False,3,1,"[5, 5, 5, 6, 6, 6, 7, 7, 7, 8, 8, 8, 9, 9, 9, 2, 2, 2, 1, 1, 1, 3, 3, 3, 4, 4, 4]","[[6, 5, 2, 3, 2], [3, 6, 7, 5, 5], [6, 8, 6, 5, 6]]","[[3, 0, 0, 0, 0], [0, 0, 0, 0, 0], [1, 1, 1, 1, 1]]","[10, 18, 2]",16,10,1,0.058,0.049,0.009,"[5, 6, 7, 8, 9, 2, 1, 3, 4]",9,5,3,27346,27,174,147,low,2,traffic-light-mouselab,14,813352,8,1,0,2,2
traffic-light-mouselab,False,3,1,"[10, 10, 10, 11, 11, 11, 12, 12, 12, 13, 13, 13, 14, 14, 14, 7, 7, 7, 8, 8, 8, 9, 9, 9]","[[4, 3, 5, 4, 3], [7, 7, 4, 5, 6], [3, 2, 6, 6, 6]]","[[1, 1, 1, 1, 1], [3, 3, 0, 0, 0], [0, 0, 0, 0, 0]]","[2, 10, 18]",16,11,4,0.058,0.05,0.008,"[10, 11, 12, 13, 14, 7, 8, 9]",8,5,3,25589,24,174,150,low,0,traffic-light-mouselab,15,847363,3,0,0,2,2
traffic-light-mouselab,False,3,1,"[0, 0, 0, 1, 1, 1, 2, 2, 2, 3, 3, 3, 4, 4, 4, 5, 5, 5, 7, 7, 7, 8, 8, 8, 6, 6, 6]","[[8, 5, 6, 5, 4], [2, 7, 2, 6, 6], [3, 5, 2, 6, 3]]","[[0, 0, 0, 0, 0], [0, 0, 0, 0, 3], [1, 1, 1, 1, 1]]","[18, 10, 2]",16,12,0,0.057,0.048,0.009,"[0, 1, 2, 3, 4, 5, 7, 8, 6]",9,5,3,44516,27,170,143,low,2,traffic-light-mouselab,16,897316,3,0,0,2,2
traffic-light-mouselab,False,3,1,"[5, 5, 5, 6, 6, 6, 7, 7, 7, 8, 8, 8, 9, 9, 9, 14, 14, 14, 13, 13, 13, 12, 12, 12, 10, 10, 10]","[[5, 6, 6, 6, 4], [6, 3, 6, 6, 10], [7, 4, 6, 4, 5]]","[[1, 1, 1, 1, 1], [0, 0, 0, 0, 0], [0, 3, 0, 0, 0]]","[2, 18, 10]",16,13,4,0.079,0.07,0.009,"[5, 6, 7, 8, 9, 14, 13, 12, 10]",9,5,3,34783,27,238,211,low,0,traffic-light-mouselab,17,934724,4,0,0,2,2
traffic-light-mouselab,False,3,1,"[10, 10, 10, 11, 11, 11, 12, 12, 12, 13, 13, 13, 14, 14, 14, 3, 3, 3, 0, 0, 0, 1, 1, 1, 2, 2, 2]","[[3, 8, 7, 5, 2], [6, 4, 5, 6, 4], [7, 5, 5, 8, 3]]","[[0, 0, 0, 0, 3], [1, 1, 1, 1, 1], [0, 0, 0, 0, 0]]","[10, 2, 18]",16,14,3,0.069,0.060000000000000005,0.009,"[10, 11, 12, 13, 14, 3, 0, 1, 2]",9,5,3,68665,27,206,179,low,1,traffic-light-mouselab,18,1006039,6,1,0,2,2
traffic-light-mouselab,False,3,1,"[10, 10, 10, 11, 11, 11, 12, 12, 12, 13, 13, 13, 14, 14, 14, 7, 9, 8, 6, 5]","[[4, 5, 5, 5, 7], [5, 3, 7, 4, 6], [5, 4, 7, 6, 7]]","[[3, 3, 3, 3, 3], [0, 0, 0, 0, 0], [0, 0, 0, 0, 0]]","[2, 10, 18]",16,15,2,0.069,0.06233333333333334,0.006666666666666667,"[10, 11, 12, 13, 14, 7, 9, 8, 6, 5]",10,5,3,28415,20,206,186,medium,1,traffic-light-mouselab,19,1037559,7,1,5,10,2
traffic-light-mouselab,False,3,1,"[10, 10, 10, 11, 11, 11, 12, 12, 12, 13, 13, 13, 14, 14, 14, 9, 8, 7, 6, 5]","[[7, 4, 3, 6, 4], [6, 5, 4, 7, 3], [6, 3, 3, 3, 4]]","[[3, 3, 3, 3, 3], [0, 0, 0, 0, 0], [0, 0, 0, 0, 0]]","[2, 10, 18]",16,16,0,0.061,0.05433333333333333,0.006666666666666667,"[10, 11, 12, 13, 14, 9, 8, 7, 6, 5]",10,5,3,42568,20,182,162,medium,1,traffic-light-mouselab,20,1083325,6,0,5,10,2
traffic-light-mouselab,False,3,1,"[5, 6, 7, 8, 9, 13, 13, 13, 12, 12, 12]","[[3, 7, 7, 5, 2], [4, 3, 7, 8, 5], [9, 5, 6, 5, 7]]","[[3, 3, 3, 3, 3], [0, 0, 0, 0, 0], [3, 3, 0, 0, 3]]","[2, 18, 10]",16,17,3,0.068,0.06433333333333334,0.0036666666666666666,"[5, 6, 7, 8, 9, 13, 12]",7,5,3,43999,11,204,193,hi,1,traffic-light-mouselab,21,1130563,8,1,5,18,2
traffic-light-mouselab,False,3,1,"[5, 5, 5, 6, 6, 6, 7, 7, 7, 8, 8, 8, 9, 9, 9, 14, 13, 12, 11, 10]","[[7, 8, 7, 5, 4], [3, 3, 6, 4, 5], [3, 5, 0, 4, 5]]","[[3, 3, 3, 3, 3], [0, 0, 0, 0, 0], [0, 0, 0, 0, 0]]","[2, 18, 10]",16,18,4,0.049,0.042333333333333334,0.006666666666666667,"[5, 6, 7, 8, 9, 14, 13, 12, 11, 10]",10,5,3,26869,20,148,128,medium,2,traffic-light-mouselab,22,1159553,5,1,5,10,2
traffic-light-mouselab,False,3,1,"[10, 11, 12, 13, 14, 1, 1, 1, 4, 4, 4, 3, 3, 3]","[[4, 2, 5, 7, 4], [5, 5, 5, 9, 4], [1, 7, 3, 4, 6]]","[[3, 0, 3, 0, 0], [3, 3, 3, 3, 3], [0, 0, 0, 0, 0]]","[10, 2, 18]",16,19,4,0.052,0.04733333333333333,0.004666666666666667,"[10, 11, 12, 13, 14, 1, 4, 3]",8,5,3,52315,14,156,142,hi,2,traffic-light-mouselab,23,1214150,6,0,5,18,2
traffic-light-mouselab,False,3,1,"[5, 6, 7, 8, 9, 4, 4, 4, 0, 0, 0, 3, 3, 3, 2, 2, 2, 1, 1, 1]","[[4, 5, 7, 6, 2], [6, 4, 4, 5, 8], [0, 3, 8, 6, 4]]","[[0, 0, 0, 0, 0], [0, 0, 0, 0, 0], [3, 3, 3, 3, 3]]","[10, 18, 2]",16,20,4,0.057,0.050333333333333334,0.006666666666666667,"[5, 6, 7, 8, 9, 4, 0, 3, 2, 1]",10,5,3,54376,20,172,152,hi,1,traffic-light-mouselab,24,1270894,8,1,5,18,2
traffic-light-mouselab,False,3,1,"[10, 11, 12, 13, 14, 2, 2, 2, 4, 4, 4, 1, 1, 1, 0, 0, 0]","[[7, 6, 6, 7, 3], [3, 9, 4, 6, 3], [5, 5, 6, 3, 6]]","[[0, 0, 0, 3, 0], [3, 3, 3, 3, 3], [0, 0, 0, 0, 0]]","[10, 2, 18]",16,21,2,0.059,0.05333333333333333,0.005666666666666667,"[10, 11, 12, 13, 14, 2, 4, 1, 0]",9,5,3,49720,17,176,159,hi,2,traffic-light-mouselab,25,1322576,6,1,5,18,2
traffic-light-mouselab,False,3,1,"[5, 5, 5, 6, 6, 6, 7, 7, 7, 8, 8, 8, 9, 9, 9, 4, 3, 2, 1, 0]","[[4, 7, 4, 6, 5], [7, 5, 6, 5, 6], [8, 4, 4, 7, 3]]","[[0, 0, 0, 0, 0], [0, 0, 0, 0, 0], [3, 3, 3, 3, 3]]","[10, 18, 2]",16,22,0,0.061,0.05433333333333333,0.006666666666666667,"[5, 6, 7, 8, 9, 4, 3, 2, 1, 0]",10,5,3,43833,20,182,162,medium,0,traffic-light-mouselab,26,1368504,4,0,5,10,2
traffic-light-mouselab,False,3,1,"[5, 6, 7, 8, 9, 3, 3, 3, 4, 4, 4, 2, 2, 2, 0, 0, 0, 10, 10, 10, 14, 14, 14]","[[5, 5, 5, 4, 5], [6, 3, 5, 7, 6], [2, 5, 5, 5, 7]]","[[0, 3, 0, 0, 0], [0, 0, 0, 0, 0], [0, 3, 3, 3, 0]]","[10, 18, 2]",16,23,4,0.057,0.04933333333333333,0.007666666666666666,"[5, 6, 7, 8, 9, 3, 4, 2, 0, 10, 14]",11,5,3,35301,23,172,149,hi,1,traffic-light-mouselab,27,1406928,6,0,5,18,2
traffic-light-mouselab,False,3,1,"[10, 10, 10, 11, 11, 11, 12, 12, 12, 13, 13, 13, 14, 14, 14, 8, 8, 8, 7, 7, 7, 6, 6, 6, 5, 5, 5, 9, 9, 9, 2, 4, 0]","[[5, 4, 5, 6, 5], [7, 3, 6, 4, 7], [5, 5, 6, 6, 5]]","[[0, 1, 0, 1, 0], [0, 0, 0, 0, 0], [0, 0, 0, 0, 0]]","[2, 10, 18]",16,24,2,0.059,0.048,0.011,"[10, 11, 12, 13, 14, 8, 7, 6, 5, 9, 2, 4, 0]",13,5,3,59971,33,178,145,low,0,traffic-light-mouselab,28,1469362,5,0,3,2,2
traffic-light-mouselab,False,3,1,"[5, 5, 5, 6, 6, 6, 7, 7, 7, 8, 8, 8, 9, 9, 9, 14, 13, 12, 11, 10]","[[4, 4, 1, 6, 5], [4, 3, 5, 4, 6], [4, 6, 3, 4, 3]]","[[3, 3, 3, 3, 3], [0, 0, 0, 0, 0], [0, 0, 0, 0, 0]]","[2, 18, 10]",16,25,4,0.049,0.042333333333333334,0.006666666666666667,"[5, 6, 7, 8, 9, 14, 13, 12, 11, 10]",10,5,3,54237,20,148,128,medium,2,traffic-light-mouselab,29,1525674,3,0,5,10,2
traffic-light-mouselab,False,3,1,"[5, 5, 5, 6, 6, 6, 7, 7, 7, 8, 8, 8, 9, 9, 9, 10, 11, 12, 13, 14, 1, 1, 1, 2, 2, 2, 3, 3, 3]","[[5, 7, 6, 5, 3], [5, 5, 5, 4, 5], [4, 6, 6, 7, 2]]","[[3, 0, 0, 0, 3], [0, 0, 0, 0, 0], [0, 0, 0, 0, 0]]","[2, 18, 10]",16,26,1,0.055,0.04533333333333334,0.009666666666666667,"[5, 6, 7, 8, 9, 10, 11, 12, 13, 14, 1, 2, 3]",13,5,3,87851,29,164,135,medium,2,traffic-light-mouselab,30,1616494,6,0,5,10,2
traffic-light-mouselab,False,3,1,"[10, 11, 12, 13, 14, 9, 9, 9, 6, 6, 6]","[[6, 2, 4, 7, 5], [7, 5, 3, 5, 4], [5, 6, 5, 3, 9]]","[[3, 3, 3, 3, 3], [3, 0, 3, 3, 0], [0, 0, 0, 0, 0]]","[2, 10, 18]",16,27,4,0.071,0.06733333333333333,0.0036666666666666666,"[10, 11, 12, 13, 14, 9, 6]",7,5,3,19284,11,212,201,hi,2,traffic-light-mouselab,31,1639055,9,1,5,18,2
traffic-light-mouselab,False,3,1,"[5, 5, 5, 6, 6, 6, 7, 7, 7, 8, 8, 8, 9, 9, 9, 13, 13, 13, 14, 14, 14, 12, 12, 12, 11, 11, 11]","[[4, 4, 1, 3, 6], [4, 5, 5, 7, 4], [5, 0, 5, 4, 5]]","[[1, 1, 1, 1, 1], [0, 0, 0, 0, 0], [3, 0, 0, 0, 0]]","[2, 18, 10]",16,28,3,0.057,0.048,0.009,"[5, 6, 7, 8, 9, 13, 14, 12, 11]",9,5,3,21061,27,172,145,low,0,traffic-light-mouselab,32,1666531,3,0,0,2,2
traffic-light-mouselab,False,3,1,"[5, 5, 5, 6, 6, 6, 7, 7, 7, 8, 8, 8, 9, 9, 9, 10, 10, 10, 14, 14, 14, 13, 13, 13, 12, 12, 12, 11, 11, 11, 3, 4, 1]","[[1, 3, 7, 3, 4], [5, 4, 4, 4, 5], [2, 7, 4, 7, 6]]","[[1, 0, 1, 0, 0], [0, 0, 0, 0, 0], [0, 0, 0, 0, 0]]","[2, 18, 10]",16,29,4,0.053,0.041999999999999996,0.011,"[5, 6, 7, 8, 9, 10, 14, 13, 12, 11, 3, 4, 1]",13,5,3,54783,33,158,125,low,0,traffic-light-mouselab,33,1723693,4,0,3,2,2
traffic-light-mouselab,False,3,1,"[10, 10, 10, 11, 11, 11, 12, 12, 12, 13, 13, 13, 14, 14, 14, 6, 5, 9]","[[3, 5, 6, 4, 5], [4, 3, 8, 6, 7], [4, 7, 3, 2, 4]]","[[3, 3, 3, 3, 3], [0, 0, 1, 1, 0], [0, 0, 0, 0, 0]]","[2, 10, 18]",16,30,1,0.055,0.049,0.006,"[10, 11, 12, 13, 14, 6, 5, 9]",8,5,3,32930,18,166,148,medium,1,traffic-light-mouselab,34,1759655,3,0,3,10,2
traffic-light-mouselab,False,3,1,"[10, 11, 12, 13, 14, 2, 2, 2, 0, 0, 0]","[[6, 1, 4, 6, 4], [9, 1, 6, 7, 6], [7, 3, 7, 3, 5]]","[[0, 3, 0, 3, 3], [3, 3, 3, 3, 3], [0, 0, 0, 0, 0]]","[10, 2, 18]",16,31,0,0.068,0.06433333333333334,0.0036666666666666666,"[10, 11, 12, 13, 14, 2, 0]",7,5,3,15870,11,204,193,hi,2,traffic-light-mouselab,35,1778389,7,1,5,18,2
traffic-light-mouselab,False,3,1,"[10, 10, 10, 11, 11, 11, 12, 12, 12, 13, 13, 13, 14, 14, 14, 8, 6, 7]","[[7, 6, 5, 6, 2], [4, 2, 5, 7, 6], [3, 7, 6, 9, 6]]","[[3, 3, 3, 3, 3], [1, 0, 0, 0, 1], [0, 0, 0, 0, 0]]","[2, 10, 18]",16,32,3,0.081,0.075,0.006,"[10, 11, 12, 13, 14, 8, 6, 7]",8,5,3,19421,18,244,226,medium,1,traffic-light-mouselab,36,1800753,7,1,3,10,2
traffic-light-mouselab,False,3,1,"[5, 5, 5, 6, 6, 6, 7, 7, 7, 8, 8, 8, 9, 9, 9, 1, 0, 2]","[[6, 4, 7, 6, 2], [5, 7, 5, 2, 3], [9, 6, 3, 6, 3]]","[[0, 0, 0, 1, 1], [0, 0, 0, 0, 0], [3, 3, 3, 3, 3]]","[10, 18, 2]",16,33,2,0.055,0.049,0.006,"[5, 6, 7, 8, 9, 1, 0, 2]",8,5,3,26242,18,166,148,medium,0,traffic-light-mouselab,37,1829683,7,1,3,10,2
traffic-light-mouselab,True,3,1,"[0, 1, 2, 3, 4, 5, 6, 7, 8, 9, 14, 13, 12, 11, 10, 0]","[[5, 8, 6, 4, 6], [3, 8, 4, 6, 5], [4, 4, 6, 6, 4]]","[[0, 0, 0, 0, 0], [2, 2, 2, 2, 2], [2, 2, 2, 2, 2]]","[18, 10, 2]",16,1,0,0.043,0.038,0.005,"[0, 1, 2, 3, 4]",5,5,3,32672,15,128,113,hi,0,traffic-light-mouselab,4,167413,5,0,6,18,3
traffic-light-mouselab,True,3,1,"[10, 11]","[[4, 7, 5, 9, 4], [3, 6, 7, 8, 4], [5, 4, 3, 4, 3]]","[[3, 3, 3, 3, 3], [1, 1, 1, 1, 1], [2, 2, 3, 3, 3]]","[10, 2, 18]",16,2,2,0.039,0.03833333333333333,0.0006666666666666666,[],0,5,3,13046,2,118,116,low,1,traffic-light-mouselab,5,181977,7,0,0,2,3
traffic-light-mouselab,True,3,1,[],"[[5, 5, 5, 5, 6], [6, 3, 8, 5, 4], [6, 6, 6, 7, 2]]","[[3, 3, 3, 3, 3], [3, 3, 3, 3, 3], [1, 1, 1, 1, 1]]","[2, 18, 10]",16,3,3,0.057,0.057,0.0,[],0,5,3,1045,0,170,170,medium,2,traffic-light-mouselab,6,183943,7,1,0,10,3
traffic-light-mouselab,False,3,1,[],"[[7, 5, 8, 6, 5], [5, 4, 2, 7, 4], [8, 6, 2, 7, 3]]","[[1, 1, 1, 1, 1], [3, 3, 3, 3, 3], [3, 3, 3, 3, 3]]","[2, 10, 18]",16,4,4,0.035,0.035,0.0,[],0,5,3,761,0,104,104,low,0,traffic-light-mouselab,8,187129,5,0,0,2,3
traffic-light-mouselab,False,3,1,[],"[[4, 7, 5, 2, 4], [7, 7, 8, 3, 5], [5, 5, 4, 5, 3]]","[[3, 3, 3, 3, 3], [3, 3, 3, 3, 3], [1, 1, 1, 1, 1]]","[2, 18, 10]",16,5,3,0.036,0.036,0.0,[],0,5,3,539,0,108,108,medium,2,traffic-light-mouselab,9,189043,5,1,0,10,3
traffic-light-mouselab,False,3,1,[],"[[3, 7, 4, 4, 6], [4, 3, 4, 3, 2], [3, 4, 1, 3, 6]]","[[3, 3, 3, 3, 3], [1, 1, 1, 1, 1], [3, 3, 3, 3, 3]]","[18, 10, 2]",16,6,1,0.055,0.055,0.0,[],0,5,3,603,0,164,164,medium,1,traffic-light-mouselab,10,190433,3,0,0,10,3
traffic-light-mouselab,False,3,1,[],"[[4, 8, 5, 4, 4], [5, 2, 4, 5, 4], [6, 3, 6, 8, 9]]","[[3, 3, 3, 3, 3], [3, 3, 3, 3, 3], [1, 1, 1, 1, 1]]","[2, 10, 18]",16,7,2,0.053,0.053,0.0,[],0,5,3,491,0,158,158,hi,2,traffic-light-mouselab,11,191565,6,0,0,18,3
traffic-light-mouselab,False,3,1,[],"[[5, 7, 3, 7, 3], [6, 2, 3, 9, 6], [2, 2, 3, 6, 5]]","[[3, 3, 3, 3, 3], [1, 1, 1, 1, 1], [3, 3, 3, 3, 3]]","[2, 18, 10]",16,8,0,0.046,0.046,0.0,[],0,5,3,551,0,138,138,hi,1,traffic-light-mouselab,12,192927,6,0,0,18,3
traffic-light-mouselab,False,3,1,[],"[[5, 4, 3, 6, 7], [4, 5, 6, 4, 3], [4, 5, 10, 3, 4]]","[[3, 3, 3, 3, 3], [3, 3, 3, 3, 3], [1, 1, 1, 1, 1]]","[18, 2, 10]",16,9,1,0.044,0.044,0.0,[],0,5,3,477,0,132,132,medium,2,traffic-light-mouselab,13,194095,5,0,0,10,3
traffic-light-mouselab,False,3,1,[],"[[4, 7, 4, 1, 3], [2, 3, 6, 7, 7], [5, 7, 4, 5, 5]]","[[3, 3, 3, 3, 3], [1, 1, 1, 1, 1], [3, 3, 3, 3, 3]]","[10, 2, 18]",16,10,3,0.038,0.038,0.0,[],0,5,3,917,0,114,114,low,1,traffic-light-mouselab,14,195883,7,1,0,2,3
traffic-light-mouselab,False,3,1,[],"[[2, 5, 5, 6, 7], [3, 5, 4, 7, 7], [4, 7, 7, 5, 6]]","[[1, 1, 1, 1, 1], [3, 3, 3, 3, 3], [3, 3, 3, 3, 3]]","[10, 2, 18]",16,11,2,0.061,0.061,0.0,[],0,5,3,725,0,184,184,medium,0,traffic-light-mouselab,15,197431,5,0,0,10,3
traffic-light-mouselab,False,3,1,[],"[[4, 4, 5, 7, 1], [3, 9, 3, 5, 4], [4, 4, 5, 6, 7]]","[[3, 3, 3, 3, 3], [1, 1, 1, 1, 1], [3, 3, 3, 3, 3]]","[10, 18, 2]",16,12,1,0.07,0.07,0.0,[],0,5,3,691,0,210,210,hi,1,traffic-light-mouselab,16,199267,9,1,0,18,3
traffic-light-mouselab,False,3,1,[],"[[4, 1, 9, 4, 8], [4, 3, 5, 6, 5], [4, 6, 6, 7, 4]]","[[3, 3, 3, 3, 3], [1, 1, 1, 1, 1], [3, 3, 3, 3, 3]]","[10, 18, 2]",16,13,4,0.059,0.059,0.0,[],0,5,3,1133,0,178,178,hi,1,traffic-light-mouselab,17,201621,5,0,0,18,3
traffic-light-mouselab,False,3,1,[],"[[4, 6, 6, 4, 6], [6, 7, 5, 8, 4], [5, 6, 3, 2, 5]]","[[3, 3, 3, 3, 3], [1, 1, 1, 1, 1], [3, 3, 3, 3, 3]]","[18, 2, 10]",16,14,3,0.036,0.036,0.0,[],0,5,3,749,0,108,108,low,1,traffic-light-mouselab,18,203655,8,1,0,2,3
traffic-light-mouselab,False,3,1,[],"[[5, 7, 5, 4, 3], [5, 6, 5, 5, 5], [5, 5, 9, 8, 1]]","[[3, 3, 3, 3, 3], [3, 3, 3, 3, 3], [1, 1, 1, 1, 1]]","[10, 18, 2]",16,15,2,0.053,0.053,0.0,[],0,5,3,725,0,158,158,low,2,traffic-light-mouselab,19,205247,9,1,0,2,3
traffic-light-mouselab,False,3,1,[],"[[8, 7, 7, 5, 4], [5, 2, 4, 6, 5], [4, 3, 7, 7, 4]]","[[1, 1, 1, 1, 1], [3, 3, 3, 3, 3], [3, 3, 3, 3, 3]]","[18, 10, 2]",16,16,1,0.051,0.051,0.0,[],0,5,3,857,0,152,152,hi,0,traffic-light-mouselab,20,206939,7,0,0,18,3
traffic-light-mouselab,False,3,1,[],"[[5, 5, 7, 7, 5], [6, 6, 5, 4, 5], [3, 9, 4, 5, 6]]","[[3, 3, 3, 3, 3], [3, 3, 3, 3, 3], [1, 1, 1, 1, 1]]","[2, 18, 10]",16,17,0,0.049,0.049,0.0,[],0,5,3,709,0,148,148,medium,2,traffic-light-mouselab,21,208511,3,0,0,10,3
traffic-light-mouselab,False,3,1,[],"[[6, 3, 3, 5, 5], [2, 5, 4, 8, 8], [6, 6, 6, 4, 5]]","[[3, 3, 3, 3, 3], [1, 1, 1, 1, 1], [3, 3, 3, 3, 3]]","[10, 2, 18]",16,18,1,0.049,0.049,0.0,[],0,5,3,901,0,148,148,low,1,traffic-light-mouselab,22,210191,5,0,0,2,3
traffic-light-mouselab,False,3,1,[],"[[1, 7, 6, 7, 7], [5, 6, 2, 2, 5], [5, 5, 6, 7, 6]]","[[3, 3, 3, 3, 3], [1, 1, 1, 1, 1], [3, 3, 3, 3, 3]]","[18, 10, 2]",16,19,4,0.063,0.063,0.0,[],0,5,3,671,0,188,188,medium,1,traffic-light-mouselab,23,212297,5,0,0,10,3
traffic-light-mouselab,False,3,1,[],"[[7, 6, 5, 5, 3], [9, 2, 4, 5, 4], [3, 6, 3, 5, 6]]","[[1, 1, 1, 1, 1], [3, 3, 3, 3, 3], [3, 3, 3, 3, 3]]","[18, 2, 10]",16,20,3,0.05,0.05,0.0,[],0,5,3,741,0,150,150,hi,0,traffic-light-mouselab,24,213901,5,0,0,18,3
traffic-light-mouselab,False,3,1,[],"[[8, 8, 7, 4, 5], [5, 3, 5, 2, 3], [4, 6, 4, 4, 5]]","[[3, 3, 3, 3, 3], [3, 3, 3, 3, 3], [1, 1, 1, 1, 1]]","[2, 10, 18]",16,21,2,0.045,0.045,0.0,[],0,5,3,660,0,136,136,hi,2,traffic-light-mouselab,25,215379,4,0,0,18,3
traffic-light-mouselab,False,3,1,[],"[[6, 3, 3, 5, 7], [5, 6, 7, 6, 4], [5, 5, 6, 3, 5]]","[[1, 1, 1, 1, 1], [3, 3, 3, 3, 3], [3, 3, 3, 3, 3]]","[2, 10, 18]",16,22,4,0.048,0.048,0.0,[],0,5,3,619,0,144,144,low,0,traffic-light-mouselab,26,216753,7,1,0,2,3
traffic-light-mouselab,False,3,1,[],"[[4, 5, 2, 4, 5], [6, 8, 8, 7, 5], [7, 7, 4, 6, 6]]","[[3, 3, 3, 3, 3], [1, 1, 1, 1, 1], [3, 3, 3, 3, 3]]","[2, 18, 10]",16,23,1,0.075,0.075,0.0,[],0,5,3,539,0,224,224,hi,1,traffic-light-mouselab,27,218043,8,1,0,18,3
traffic-light-mouselab,False,3,1,[],"[[4, 3, 7, 3, 7], [7, 1, 4, 5, 2], [5, 5, 5, 7, 5]]","[[3, 3, 3, 3, 3], [3, 3, 3, 3, 3], [1, 1, 1, 1, 1]]","[10, 18, 2]",16,24,2,0.051,0.051,0.0,[],0,5,3,587,0,152,152,low,2,traffic-light-mouselab,28,219347,5,0,0,2,3
traffic-light-mouselab,False,3,1,[],"[[8, 6, 8, 4, 5], [5, 8, 6, 1, 5], [5, 3, 3, 5, 6]]","[[3, 3, 3, 3, 3], [3, 3, 3, 3, 3], [1, 1, 1, 1, 1]]","[2, 10, 18]",16,25,0,0.052,0.052,0.0,[],0,5,3,701,0,156,156,hi,2,traffic-light-mouselab,29,220803,5,0,0,18,3
traffic-light-mouselab,False,3,1,[],"[[6, 6, 8, 6, 6], [3, 3, 3, 7, 8], [7, 4, 5, 5, 7]]","[[1, 1, 1, 1, 1], [3, 3, 3, 3, 3], [3, 3, 3, 3, 3]]","[2, 10, 18]",16,26,4,0.073,0.073,0.0,[],0,5,3,707,0,218,218,low,0,traffic-light-mouselab,30,222707,6,0,0,2,3
traffic-light-mouselab,False,3,1,[],"[[2, 3, 7, 8, 4], [4, 5, 1, 6, 4], [8, 6, 6, 4, 6]]","[[3, 3, 3, 3, 3], [1, 1, 1, 1, 1], [3, 3, 3, 3, 3]]","[2, 18, 10]",16,27,3,0.055,0.055,0.0,[],0,5,3,637,0,164,164,hi,1,traffic-light-mouselab,31,224200,6,1,0,18,3
traffic-light-mouselab,False,3,1,[],"[[4, 5, 6, 6, 4], [5, 5, 5, 4, 4], [2, 5, 4, 2, 3]]","[[3, 3, 3, 3, 3], [1, 1, 1, 1, 1], [3, 3, 3, 3, 3]]","[10, 2, 18]",16,28,4,0.034,0.034,0.0,[],0,5,3,789,0,102,102,low,1,traffic-light-mouselab,32,225681,4,0,0,2,3
traffic-light-mouselab,False,3,1,[],"[[2, 4, 7, 3, 7], [2, 6, 5, 4, 6], [4, 3, 7, 3, 6]]","[[1, 1, 1, 1, 1], [3, 3, 3, 3, 3], [3, 3, 3, 3, 3]]","[10, 18, 2]",16,29,1,0.051,0.051,0.0,[],0,5,3,523,0,154,154,medium,0,traffic-light-mouselab,33,227517,4,0,0,10,3
traffic-light-mouselab,False,3,1,[],"[[5, 6, 3, 6, 1], [3, 8, 8, 6, 4], [0, 7, 1, 4, 8]]","[[3, 3, 3, 3, 3], [1, 1, 1, 1, 1], [3, 3, 3, 3, 3]]","[2, 10, 18]",16,30,2,0.035,0.035,0.0,[],0,5,3,587,0,104,104,medium,1,traffic-light-mouselab,34,228763,8,1,0,10,3
traffic-light-mouselab,False,3,1,[],"[[2, 4, 3, 3, 9], [6, 2, 2, 4, 3], [6, 7, 4, 5, 4]]","[[3, 3, 3, 3, 3], [1, 1, 1, 1, 1], [3, 3, 3, 3, 3]]","[18, 2, 10]",16,31,3,0.037,0.037,0.0,[],0,5,3,563,0,112,112,low,1,traffic-light-mouselab,35,230045,4,0,0,2,3
traffic-light-mouselab,False,3,1,[],"[[2, 7, 3, 6, 6], [4, 7, 5, 8, 4], [6, 8, 7, 6, 5]]","[[3, 3, 3, 3, 3], [3, 3, 3, 3, 3], [1, 1, 1, 1, 1]]","[2, 18, 10]",16,32,1,0.073,0.073,0.0,[],0,5,3,707,0,220,220,medium,2,traffic-light-mouselab,36,232517,8,1,0,10,3
traffic-light-mouselab,False,3,1,[],"[[4, 6, 4, 10, 4], [6, 7, 8, 6, 3], [8, 0, 4, 6, 7]]","[[1, 1, 1, 1, 1], [3, 3, 3, 3, 3], [3, 3, 3, 3, 3]]","[10, 2, 18]",16,33,0,0.065,0.065,0.0,[],0,5,3,1467,0,196,196,medium,0,traffic-light-mouselab,37,234876,4,0,0,10,3
traffic-light-mouselab,True,3,1,"[12, 10, 11, 13, 14, 9, 9, 9, 8, 8, 8, 7, 7, 7, 6, 6, 6, 5, 5, 5, 1, 1, 1, 2, 2, 2, 3, 3, 3, 4, 4, 4, 0, 0, 0, 2, 0]","[[6, 6, 6, 6, 5], [5, 5, 2, 2, 7], [6, 7, 4, 5, 3]]","[[0, 0, 0, 0, 0], [0, 0, 0, 0, 0], [0, 0, 0, 0, 0]]","[18, 2, 10]",16,1,1,0.063,0.051333333333333335,0.011666666666666667,"[12, 10, 11, 13, 14, 9, 8, 7, 6, 5, 1, 2, 3, 4, 0]",15,5,3,71571,35,188,153,medium,2,traffic-light-mouselab,4,231957,7,1,5,10,5
traffic-light-mouselab,True,3,1,"[12, 12, 12, 7, 7, 7, 2]","[[4, 6, 6, 6, 4], [3, 5, 4, 7, 3], [4, 7, 5, 7, 3]]","[[1, 1, 0, 1, 1], [3, 3, 0, 3, 3], [3, 3, 0, 3, 3]]","[2, 18, 10]",16,2,2,0.045,0.042666666666666665,0.0023333333333333335,"[12, 7, 2]",3,5,3,6219,7,134,127,low,0,traffic-light-mouselab,5,243157,6,1,1,2,5
traffic-light-mouselab,True,3,1,"[12, 12, 12, 7, 7, 7, 2, 2, 2]","[[7, 6, 8, 7, 3], [6, 7, 4, 5, 3], [4, 5, 5, 4, 5]]","[[1, 1, 0, 1, 1], [3, 3, 0, 3, 3], [3, 3, 0, 3, 3]]","[18, 2, 10]",16,3,2,0.067,0.06466666666666666,0.0023333333333333335,"[12, 7, 2]",3,5,3,6322,7,202,195,hi,0,traffic-light-mouselab,6,250900,8,1,3,18,5
traffic-light-mouselab,False,3,1,"[12, 12, 12, 12, 7, 7, 7, 7, 2, 2]","[[7, 4, 10, 6, 10], [9, 5, 6, 6, 3], [2, 6, 5, 5, 4]]","[[1, 1, 0, 1, 1], [3, 3, 0, 3, 3], [3, 3, 0, 3, 3]]","[2, 18, 10]",16,4,2,0.059,0.056666666666666664,0.0023333333333333335,"[12, 7, 2]",3,5,3,4493,7,178,171,low,0,traffic-light-mouselab,8,260470,10,1,2,2,5
traffic-light-mouselab,False,3,1,"[12, 12, 12, 7, 7, 7, 2, 2]","[[1, 6, 5, 4, 4], [8, 4, 7, 4, 6], [3, 6, 2, 9, 6]]","[[1, 1, 0, 1, 1], [3, 3, 0, 3, 3], [3, 3, 0, 3, 3]]","[18, 10, 2]",16,5,2,0.055,0.05266666666666667,0.0023333333333333335,"[12, 7, 2]",3,5,3,4467,7,164,157,hi,0,traffic-light-mouselab,9,266973,5,0,2,18,5
traffic-light-mouselab,False,3,1,"[12, 12, 12, 7, 2, 2, 7, 7, 2]","[[5, 5, 8, 7, 2], [4, 4, 7, 4, 6], [4, 5, 3, 8, 8]]","[[3, 3, 0, 3, 3], [3, 3, 0, 3, 3], [1, 1, 0, 1, 1]]","[18, 2, 10]",16,6,2,0.063,0.06066666666666667,0.0023333333333333335,"[12, 7, 2]",3,5,3,5684,7,188,181,medium,2,traffic-light-mouselab,10,273800,3,0,3,10,5
traffic-light-mouselab,False,3,1,"[7, 12, 12, 7, 7, 7, 2, 2, 2, 2]","[[5, 5, 5, 2, 2], [4, 4, 5, 6, 6], [8, 4, 4, 4, 7]]","[[3, 3, 0, 3, 3], [3, 3, 0, 3, 3], [1, 1, 0, 1, 1]]","[2, 10, 18]",16,7,2,0.044,0.041666666666666664,0.0023333333333333335,"[12, 7, 2]",3,5,3,3391,7,132,125,hi,2,traffic-light-mouselab,11,277981,4,0,2,18,5
traffic-light-mouselab,False,3,1,[],"[[2, 4, 3, 5, 6], [7, 6, 6, 6, 3], [6, 6, 6, 4, 6]]","[[1, 1, 1, 1, 1], [3, 3, 3, 3, 3], [3, 3, 3, 3, 3]]","[10, 2, 18]",16,8,2,0.05,0.05,0.0,[],0,5,3,4074,0,150,150,medium,0,traffic-light-mouselab,12,284759,3,0,0,10,5
traffic-light-mouselab,False,3,1,[],"[[4, 7, 6, 5, 7], [5, 3, 6, 3, 4], [5, 7, 7, 4, 2]]","[[3, 3, 3, 3, 3], [1, 1, 1, 1, 1], [3, 3, 3, 3, 3]]","[18, 10, 2]",16,9,2,0.061,0.061,0.0,[],0,5,3,1098,0,182,182,medium,1,traffic-light-mouselab,13,287218,6,1,0,10,5
traffic-light-mouselab,False,3,1,[],"[[2, 2, 4, 6, 3], [5, 1, 4, 7, 6], [4, 0, 8, 2, 3]]","[[1, 1, 1, 1, 1], [3, 3, 3, 3, 3], [3, 3, 3, 3, 3]]","[18, 2, 10]",16,10,2,0.053,0.053,0.0,[],0,5,3,678,0,160,160,hi,0,traffic-light-mouselab,14,288870,4,0,0,18,5
traffic-light-mouselab,False,3,1,"[10, 11, 12, 13, 14]","[[7, 5, 5, 7, 7], [4, 7, 10, 3, 8], [5, 4, 6, 3, 5]]","[[3, 3, 3, 3, 3], [3, 3, 3, 3, 3], [0, 0, 0, 0, 0]]","[18, 10, 2]",16,11,2,0.067,0.06533333333333334,0.0016666666666666668,"[10, 11, 12, 13, 14]",5,5,3,4867,5,202,197,low,2,traffic-light-mouselab,15,295868,6,1,5,2,5
traffic-light-mouselab,False,3,1,"[10, 11, 5, 6]","[[5, 7, 3, 3, 4], [6, 8, 3, 2, 5], [7, 5, 7, 6, 6]]","[[3, 3, 3, 3, 3], [0, 0, 1, 1, 1], [2, 2, 3, 3, 3]]","[18, 2, 10]",16,12,1,0.064,0.06266666666666666,0.0013333333333333333,"[5, 6]",2,5,3,4518,4,192,188,low,1,traffic-light-mouselab,16,301935,8,1,2,2,5
traffic-light-mouselab,False,3,1,"[1, 3, 2, 1, 0, 4]","[[3, 5, 4, 4, 6], [2, 9, 4, 6, 5], [5, 5, 4, 4, 6]]","[[0, 0, 0, 0, 0], [3, 3, 3, 3, 3], [3, 3, 3, 3, 3]]","[2, 10, 18]",16,13,4,0.057,0.05533333333333334,0.0016666666666666668,"[1, 3, 2, 0, 4]",5,5,3,4192,5,170,165,low,0,traffic-light-mouselab,17,307469,6,1,6,2,5
traffic-light-mouselab,False,3,1,"[4, 3, 2, 1, 0]","[[6, 4, 5, 5, 6], [10, 4, 6, 4, 3], [5, 2, 6, 6, 7]]","[[0, 0, 0, 0, 0], [3, 3, 3, 3, 3], [3, 3, 3, 3, 3]]","[2, 18, 10]",16,14,4,0.045,0.043333333333333335,0.0016666666666666668,"[4, 3, 2, 1, 0]",5,5,3,3866,5,136,131,low,0,traffic-light-mouselab,18,312502,6,1,5,2,5
traffic-light-mouselab,False,3,1,"[4, 3, 7, 8, 9]","[[5, 8, 7, 6, 4], [6, 3, 6, 4, 3], [7, 4, 7, 5, 4]]","[[3, 3, 3, 2, 2], [1, 1, 0, 0, 0], [3, 3, 3, 3, 3]]","[10, 18, 2]",16,15,2,0.064,0.06233333333333334,0.0016666666666666668,"[7, 8, 9]",3,5,3,3864,5,192,187,hi,1,traffic-light-mouselab,19,317091,6,1,3,18,5
traffic-light-mouselab,False,3,1,"[7, 6, 8]","[[6, 3, 5, 3, 9], [7, 2, 4, 6, 4], [6, 5, 6, 7, 7]]","[[3, 3, 3, 3, 3], [1, 0, 0, 0, 1], [3, 3, 3, 3, 3]]","[10, 18, 2]",16,16,3,0.051,0.049999999999999996,0.001,"[7, 6, 8]",3,5,3,4033,3,152,149,hi,1,traffic-light-mouselab,20,322112,6,0,3,18,5
traffic-light-mouselab,False,3,1,"[3, 2, 1]","[[7, 6, 5, 5, 6], [4, 4, 3, 1, 5], [5, 5, 4, 4, 4]]","[[1, 0, 0, 0, 1], [3, 3, 3, 3, 3], [3, 3, 3, 3, 3]]","[18, 10, 2]",16,17,1,0.053,0.052,0.001,"[3, 2, 1]",3,5,3,3490,3,158,155,hi,0,traffic-light-mouselab,21,326400,6,0,3,18,5
traffic-light-mouselab,False,3,1,"[6, 7]","[[4, 4, 5, 3, 4], [4, 4, 5, 3, 3], [6, 5, 6, 6, 4]]","[[3, 3, 3, 3, 3], [1, 0, 0, 1, 1], [3, 3, 3, 3, 3]]","[2, 18, 10]",16,18,3,0.04,0.03933333333333333,0.0006666666666666666,"[6, 7]",2,5,3,2721,2,120,118,hi,1,traffic-light-mouselab,22,330395,3,0,2,18,5
traffic-light-mouselab,False,3,1,[14],"[[2, 5, 1, 3, 7], [6, 6, 7, 4, 5], [7, 4, 5, 3, 7]]","[[3, 3, 3, 3, 3], [3, 3, 3, 3, 3], [1, 1, 1, 1, 0]]","[2, 18, 10]",16,19,4,0.058,0.05766666666666667,0.0003333333333333333,[14],1,5,3,2225,1,174,173,medium,2,traffic-light-mouselab,23,333674,7,1,1,10,5
traffic-light-mouselab,False,3,1,"[9, 8, 7]","[[4, 5, 5, 6, 6], [6, 8, 7, 3, 4], [5, 6, 7, 5, 5]]","[[3, 3, 3, 3, 3], [1, 1, 0, 0, 0], [3, 3, 3, 3, 3]]","[2, 10, 18]",16,20,2,0.069,0.068,0.001,"[9, 8, 7]",3,5,3,2981,3,206,203,medium,1,traffic-light-mouselab,24,337566,7,0,3,10,5
traffic-light-mouselab,False,3,1,[8],"[[6, 3, 6, 1, 5], [5, 7, 9, 8, 10], [3, 8, 7, 6, 7]]","[[3, 3, 3, 3, 3], [1, 1, 1, 0, 1], [3, 3, 3, 3, 3]]","[10, 18, 2]",16,21,3,0.055,0.05466666666666667,0.0003333333333333333,[8],1,5,3,1816,1,166,165,hi,1,traffic-light-mouselab,25,342240,8,0,1,18,5
traffic-light-mouselab,False,3,1,"[8, 7]","[[4, 6, 1, 6, 5], [6, 4, 6, 6, 10], [7, 6, 5, 6, 3]]","[[3, 3, 3, 3, 3], [1, 1, 0, 0, 1], [3, 3, 3, 3, 3]]","[18, 2, 10]",16,22,2,0.027,0.026333333333333334,0.0006666666666666666,"[8, 7]",2,5,3,3805,2,80,78,low,1,traffic-light-mouselab,26,347123,6,0,2,2,5
traffic-light-mouselab,False,3,1,[],"[[9, 8, 4, 3, 7], [6, 8, 4, 6, 3], [6, 7, 3, 9, 4]]","[[3, 3, 3, 3, 3], [3, 3, 3, 3, 3], [1, 1, 1, 1, 1]]","[10, 18, 2]",16,23,2,0.039,0.039,0.0,[],0,5,3,1091,0,118,118,low,2,traffic-light-mouselab,27,349213,3,0,0,2,5
traffic-light-mouselab,False,3,1,[],"[[4, 6, 2, 9, 3], [5, 4, 3, 5, 6], [8, 4, 3, 4, 6]]","[[1, 1, 1, 1, 1], [3, 3, 3, 3, 3], [3, 3, 3, 3, 3]]","[2, 10, 18]",16,24,2,0.029,0.029,0.0,[],0,5,3,871,0,88,88,low,0,traffic-light-mouselab,28,350903,2,0,0,2,5
traffic-light-mouselab,False,3,1,[12],"[[3, 2, 5, 5, 9], [5, 8, 6, 4, 4], [4, 4, 5, 5, 2]]","[[3, 3, 3, 3, 3], [3, 3, 3, 3, 3], [1, 1, 0, 1, 1]]","[2, 18, 10]",16,25,3,0.044,0.043666666666666666,0.0003333333333333333,[12],1,5,3,2376,1,132,131,medium,2,traffic-light-mouselab,29,354251,5,1,1,10,5
traffic-light-mouselab,False,3,1,[],"[[3, 5, 5, 5, 4], [2, 7, 4, 3, 6], [6, 6, 5, 6, 6]]","[[1, 1, 1, 1, 1], [3, 3, 3, 3, 3], [3, 3, 3, 3, 3]]","[10, 2, 18]",16,26,3,0.055,0.055,0.0,[],0,5,3,1120,0,164,164,medium,0,traffic-light-mouselab,30,356728,5,1,0,10,5
traffic-light-mouselab,False,3,1,[],"[[4, 10, 6, 3, 4], [6, 4, 3, 4, 5], [3, 5, 7, 6, 8]]","[[3, 3, 3, 3, 3], [1, 1, 1, 1, 1], [3, 3, 3, 3, 3]]","[2, 10, 18]",16,27,4,0.067,0.067,0.0,[],0,5,3,1951,0,202,202,medium,1,traffic-light-mouselab,31,360131,5,0,0,10,5
traffic-light-mouselab,False,3,1,[],"[[4, 5, 4, 3, 2], [6, 5, 4, 7, 2], [6, 3, 4, 3, 2]]","[[3, 3, 3, 3, 3], [1, 1, 1, 1, 1], [3, 3, 3, 3, 3]]","[2, 10, 18]",16,28,0,0.059,0.059,0.0,[],0,5,3,1615,0,176,176,medium,1,traffic-light-mouselab,32,363143,6,0,0,10,5
traffic-light-mouselab,False,3,1,"[6, 2, 7]","[[6, 7, 5, 3, 7], [4, 5, 8, 4, 7], [6, 3, 6, 1, 4]]","[[3, 3, 2, 3, 3], [1, 0, 0, 1, 1], [3, 3, 3, 3, 3]]","[10, 2, 18]",16,29,2,0.058,0.057,0.001,"[6, 7]",2,5,3,3233,3,174,171,low,1,traffic-light-mouselab,33,367439,8,1,2,2,5
traffic-light-mouselab,False,3,1,[12],"[[4, 6, 8, 6, 4], [4, 5, 6, 6, 8], [7, 6, 7, 4, 3]]","[[3, 3, 3, 3, 3], [3, 3, 3, 3, 3], [1, 1, 0, 1, 1]]","[10, 2, 18]",16,30,2,0.073,0.07266666666666666,0.0003333333333333333,[12],1,5,3,1516,1,218,217,hi,2,traffic-light-mouselab,34,370065,7,1,1,18,5
traffic-light-mouselab,False,3,1,[11],"[[4, 6, 6, 4, 5], [8, 0, 6, 10, 3], [6, 4, 6, 6, 5]]","[[3, 3, 3, 3, 3], [3, 3, 3, 3, 3], [1, 0, 1, 1, 1]]","[18, 2, 10]",16,31,2,0.06,0.059666666666666666,0.0003333333333333333,[11],1,5,3,1975,1,180,179,medium,2,traffic-light-mouselab,35,373270,6,1,1,10,5
traffic-light-mouselab,False,3,1,[],"[[7, 5, 6, 2, 7], [4, 4, 7, 7, 3], [6, 6, 5, 5, 5]]","[[3, 3, 3, 3, 3], [1, 1, 1, 1, 1], [3, 3, 3, 3, 3]]","[18, 2, 10]",16,32,2,0.057,0.057,0.0,[],0,5,3,1824,0,172,172,low,1,traffic-light-mouselab,36,376218,7,1,0,2,5
traffic-light-mouselab,False,3,1,[8],"[[6, 4, 3, 7, 7], [4, 7, 4, 7, 7], [4, 4, 6, 7, 5]]","[[3, 3, 3, 3, 3], [1, 1, 1, 0, 1], [3, 3, 3, 3, 3]]","[2, 18, 10]",16,33,3,0.07,0.06966666666666667,0.0003333333333333333,[8],1,5,3,2186,1,210,209,hi,1,traffic-light-mouselab,37,379499,7,1,1,18,5
traffic-light-mouselab,True,3,1,"[0, 1, 2, 3, 4, 5, 6, 7, 8, 9, 14, 13, 12, 11, 10, 10, 11, 10, 11, 12, 13, 14, 9, 8, 5, 6, 7, 12, 13, 14, 9, 8, 7, 6, 5, 10, 10, 11, 12, 13, 10, 10, 10, 11, 13, 7, 12, 14, 9, 4]","[[7, 6, 6, 4, 6], [4, 6, 3, 3, 10], [3, 4, 4, 7, 8]]","[[0, 0, 0, 0, 0], [0, 0, 0, 0, 0], [0, 0, 0, 0, 0]]","[10, 18, 2]",16,1,2,0.041,0.029333333333333336,0.011666666666666667,"[0, 1, 2, 3, 4, 10, 11, 12, 13, 14, 9, 8, 7, 6, 5]",15,5,3,130217,35,122,87,medium,0,traffic-light-mouselab,4,301575,6,0,6,10,6
traffic-light-mouselab,True,3,1,"[0, 1, 2, 3, 4, 4, 3, 2, 1, 0, 5, 6, 7, 8, 9, 14, 13, 12, 11, 10, 9, 8, 7, 5, 6, 0, 1, 2, 3, 4, 9, 8, 7, 6, 5, 1]","[[5, 5, 4, 3, 3], [6, 6, 7, 7, 5], [4, 8, 5, 6, 7]]","[[0, 0, 0, 0, 0], [0, 0, 0, 0, 0], [0, 0, 0, 0, 0]]","[2, 10, 18]",16,2,1,0.071,0.05933333333333333,0.011666666666666667,"[14, 13, 12, 11, 10, 0, 1, 2, 3, 4, 9, 8, 7, 6, 5]",15,5,3,20524,35,214,179,hi,2,traffic-light-mouselab,5,327550,8,1,5,18,6
traffic-light-mouselab,True,3,1,"[0, 1, 2, 3, 4, 5, 6, 7, 8, 9, 14, 13, 12, 11, 10, 5, 6, 7, 8, 9, 10, 11, 12, 13, 14, 9, 7, 8, 6, 5, 10, 11, 13, 12, 14]","[[6, 2, 4, 6, 5], [6, 5, 7, 3, 5], [6, 10, 4, 5, 7]]","[[0, 0, 0, 0, 0], [0, 0, 0, 0, 0], [0, 0, 0, 0, 0]]","[2, 18, 10]",16,3,0,0.06,0.04833333333333333,0.011666666666666667,"[0, 1, 2, 3, 4, 9, 7, 8, 6, 5, 10, 11, 13, 12, 14]",15,5,3,24251,35,180,145,low,0,traffic-light-mouselab,6,353816,6,1,5,2,6
traffic-light-mouselab,False,3,1,"[0, 1, 2, 3, 4, 5, 6, 7, 8, 8, 9, 0, 1, 2, 3, 4, 4, 3, 2, 1, 0, 10, 11, 12, 13, 14, 14, 13, 12, 11, 10, 10, 11, 12, 13, 14]","[[2, 6, 3, 3, 2], [7, 5, 4, 7, 6], [6, 6, 4, 8, 7]]","[[0, 0, 0, 0, 0], [0, 0, 0, 0, 0], [0, 0, 0, 0, 0]]","[18, 2, 10]",16,4,0,0.037,0.025333333333333333,0.011666666666666667,"[5, 6, 7, 8, 9, 4, 3, 2, 1, 0, 10, 11, 12, 13, 14]",15,5,3,19237,35,110,75,low,1,traffic-light-mouselab,8,379089,7,1,6,2,6
traffic-light-mouselab,False,3,1,"[10, 11, 12, 13, 14, 9, 8, 7, 6, 5, 0, 1, 2, 3, 3, 4, 3, 2, 8, 8, 9, 9, 4, 4, 7, 7, 2, 2, 1, 1, 6, 6, 5, 5, 0, 0]","[[4, 4, 7, 4, 2], [5, 5, 5, 5, 5], [9, 3, 4, 6, 5]]","[[0, 0, 0, 0, 0], [0, 0, 0, 0, 0], [0, 0, 0, 0, 0]]","[18, 10, 2]",16,5,2,0.061,0.04933333333333333,0.011666666666666667,"[10, 11, 12, 13, 14, 3, 8, 9, 4, 7, 2, 1, 6, 5, 0]",15,5,3,19711,35,184,149,low,2,traffic-light-mouselab,9,400969,4,0,5,2,6
traffic-light-mouselab,False,3,1,"[0, 0, 0, 0, 1, 1, 1, 2, 2, 2, 3, 3, 3, 4, 4, 4, 5, 5, 6, 6, 6, 7, 7, 8, 8, 9, 9, 10, 10, 10, 11, 11, 11, 12, 12, 12, 13, 13, 13, 14, 14, 14]","[[8, 2, 5, 4, 4], [4, 3, 5, 7, 5], [5, 6, 4, 6, 7]]","[[0, 0, 0, 0, 0], [0, 0, 0, 0, 0], [0, 0, 0, 0, 0]]","[2, 18, 10]",16,6,0,0.046,0.034333333333333334,0.011666666666666667,"[0, 1, 2, 3, 4, 5, 6, 7, 8, 9, 10, 11, 12, 13, 14]",15,5,3,17011,35,138,103,hi,1,traffic-light-mouselab,10,425461,4,0,11,18,6
traffic-light-mouselab,False,3,1,"[0, 0, 0, 1, 1, 1, 2, 2, 2, 3, 3, 3, 4, 4, 4, 5, 5, 6, 6, 7, 8, 9, 10, 10, 10, 11, 11, 11, 12, 12, 12, 12, 13, 13, 13, 13, 14, 14, 14]","[[2, 4, 7, 7, 5], [3, 4, 4, 3, 5], [4, 8, 6, 6, 6]]","[[0, 0, 0, 0, 0], [0, 0, 0, 0, 0], [0, 0, 0, 0, 0]]","[18, 2, 10]",16,7,2,0.065,0.05333333333333334,0.011666666666666667,"[0, 1, 2, 3, 4, 5, 6, 7, 8, 9, 10, 11, 12, 13, 14]",15,5,3,15050,35,194,159,low,1,traffic-light-mouselab,11,442259,4,0,7,2,6
traffic-light-mouselab,False,3,1,"[10, 11, 12, 13, 14, 9, 9, 9, 8, 8, 8, 7, 7, 7, 6, 6, 6, 5, 5, 5, 0, 0, 0, 1, 1, 1, 2, 2, 2, 3, 3, 3, 4, 4, 4]","[[2, 3, 5, 4, 8], [4, 7, 4, 5, 4], [8, 4, 2, 6, 5]]","[[0, 0, 0, 0, 0], [0, 0, 0, 0, 0], [0, 0, 0, 0, 0]]","[2, 10, 18]",16,8,4,0.049,0.037333333333333336,0.011666666666666667,"[10, 11, 12, 13, 14, 9, 8, 7, 6, 5, 0, 1, 2, 3, 4]",15,5,3,13921,35,146,111,hi,2,traffic-light-mouselab,12,462948,5,0,5,18,6
traffic-light-mouselab,False,3,1,"[9, 8, 7, 6, 5, 0, 0, 0, 1, 1, 1, 2, 2, 2, 3, 3, 3, 4, 4, 4, 10, 10, 10, 11, 11, 11, 12, 12, 12, 13, 13, 13, 14, 14, 14]","[[6, 4, 6, 5, 3], [5, 6, 7, 2, 7], [7, 4, 7, 4, 5]]","[[0, 0, 0, 0, 0], [0, 0, 0, 0, 0], [0, 0, 0, 0, 0]]","[10, 18, 2]",16,9,2,0.067,0.05533333333333334,0.011666666666666667,"[9, 8, 7, 6, 5, 0, 1, 2, 3, 4, 10, 11, 12, 13, 14]",15,5,3,14251,35,200,165,hi,1,traffic-light-mouselab,13,478547,7,1,5,18,6
traffic-light-mouselab,False,3,1,"[0, 0, 0, 0, 1, 1, 1, 2, 2, 2, 3, 3, 3, 4, 4, 4, 9, 8, 7, 6, 5, 10, 10, 10, 11, 11, 11, 12, 12, 12, 13, 13, 13, 14, 14, 14]","[[6, 7, 2, 5, 6], [4, 6, 6, 3, 7], [6, 5, 3, 4, 7]]","[[0, 0, 0, 0, 0], [0, 0, 0, 0, 0], [0, 0, 0, 0, 0]]","[2, 18, 10]",16,10,1,0.057,0.04533333333333334,0.011666666666666667,"[0, 1, 2, 3, 4, 9, 8, 7, 6, 5, 10, 11, 12, 13, 14]",15,5,3,12812,35,172,137,hi,1,traffic-light-mouselab,14,492628,6,0,5,18,6
traffic-light-mouselab,False,3,1,"[0, 1, 2, 3, 4, 9, 9, 9, 8, 8, 8, 7, 7, 7, 6, 6, 6, 5, 5, 5, 10, 10, 10, 11, 11, 11, 12, 12, 12, 13, 13, 13, 14, 14, 14]","[[5, 3, 4, 3, 5], [6, 7, 2, 6, 5], [5, 6, 5, 7, 4]]","[[0, 0, 0, 0, 0], [0, 0, 0, 0, 0], [0, 0, 0, 0, 0]]","[18, 2, 10]",16,11,0,0.051,0.03933333333333333,0.011666666666666667,"[0, 1, 2, 3, 4, 9, 8, 7, 6, 5, 10, 11, 12, 13, 14]",15,5,3,12493,35,152,117,hi,0,traffic-light-mouselab,15,506287,5,1,5,18,6
traffic-light-mouselab,False,3,1,"[0, 0, 0, 1, 1, 1, 1, 2, 2, 2, 3, 3, 3, 4, 4, 4, 9, 9, 9, 8, 8, 8, 7, 7, 7, 6, 6, 6, 5, 5, 5, 10, 11, 12, 13, 14]","[[6, 7, 7, 4, 2], [6, 2, 7, 7, 4], [6, 3, 5, 5, 4]]","[[0, 0, 0, 0, 0], [0, 0, 0, 0, 0], [0, 0, 0, 0, 0]]","[2, 10, 18]",16,12,0,0.06,0.04833333333333333,0.011666666666666667,"[0, 1, 2, 3, 4, 9, 8, 7, 6, 5, 10, 11, 12, 13, 14]",15,5,3,12378,35,180,145,hi,2,traffic-light-mouselab,16,520217,6,1,5,18,6
traffic-light-mouselab,False,3,1,"[0, 0, 1, 1, 2, 2, 3, 4, 9, 9, 9, 8, 8, 8, 7, 7, 7, 6, 6, 6, 5, 5, 5, 10, 10, 10, 11, 11, 11, 12, 12, 12, 13, 13, 13, 14, 14, 14]","[[5, 4, 9, 4, 4], [4, 3, 6, 8, 1], [5, 4, 4, 6, 4]]","[[0, 0, 0, 0, 0], [0, 0, 0, 0, 0], [0, 0, 0, 0, 0]]","[10, 18, 2]",16,13,2,0.069,0.05733333333333334,0.011666666666666667,"[0, 1, 2, 3, 4, 9, 8, 7, 6, 5, 10, 11, 12, 13, 14]",15,5,3,14185,35,206,171,medium,0,traffic-light-mouselab,17,535952,9,1,8,10,6
traffic-light-mouselab,False,3,1,"[0, 0, 0, 1, 1, 1, 1, 2, 2, 2, 2, 3, 3, 3, 4, 4, 4, 6, 6, 5, 5, 5, 6, 6, 7, 7, 7, 8, 8, 8, 9, 9, 9, 10, 11, 12, 13, 14]","[[4, 2, 6, 6, 5], [5, 7, 9, 1, 5], [2, 9, 7, 4, 5]]","[[0, 0, 0, 0, 0], [0, 0, 0, 0, 0], [0, 0, 0, 0, 0]]","[10, 2, 18]",16,14,2,0.068,0.05633333333333334,0.011666666666666667,"[0, 1, 2, 3, 4, 5, 6, 7, 8, 9, 10, 11, 12, 13, 14]",15,5,3,14924,35,204,169,hi,2,traffic-light-mouselab,18,552532,7,0,5,18,6
traffic-light-mouselab,False,3,1,"[0, 1, 2, 3, 4, 9, 9, 9, 8, 8, 8, 8, 7, 7, 7, 6, 6, 6, 6, 5, 5, 5, 10, 10, 10, 11, 11, 11, 12, 12, 12, 13, 13, 13, 14, 14, 14]","[[3, 4, 4, 4, 3], [5, 3, 5, 5, 4], [4, 5, 4, 5, 8]]","[[0, 0, 0, 0, 0], [0, 0, 0, 0, 0], [0, 0, 0, 0, 0]]","[2, 10, 18]",16,15,4,0.063,0.051333333333333335,0.011666666666666667,"[0, 1, 2, 3, 4, 9, 8, 7, 6, 5, 10, 11, 12, 13, 14]",15,5,3,18476,35,190,155,low,0,traffic-light-mouselab,19,572482,3,0,5,2,6
traffic-light-mouselab,False,3,1,"[5, 1, 0, 2, 3, 4, 9, 9, 9, 9, 8, 8, 8, 8, 7, 7, 7, 6, 6, 6, 5, 5, 5, 10, 10, 10, 11, 11, 11, 12, 12, 12, 13, 13, 13, 14, 14, 14]","[[4, 5, 5, 7, 6], [5, 7, 6, 4, 4], [5, 3, 7, 6, 3]]","[[0, 0, 0, 0, 0], [0, 0, 0, 0, 0], [0, 0, 0, 0, 0]]","[18, 2, 10]",16,16,2,0.057,0.04533333333333334,0.011666666666666667,"[1, 0, 2, 3, 4, 9, 8, 7, 6, 5, 10, 11, 12, 13, 14]",15,5,3,13707,35,172,137,hi,0,traffic-light-mouselab,20,587836,5,0,5,18,6
traffic-light-mouselab,False,3,1,"[5, 6, 7, 8, 9, 14, 14, 14, 13, 13, 13, 13, 12, 12, 12, 12, 11, 11, 11, 10, 10, 10, 0, 0, 0, 1, 1, 1, 2, 2, 2, 3, 3, 3, 4, 4, 4]","[[3, 2, 1, 5, 6], [4, 5, 5, 6, 3], [3, 2, 2, 4, 5]]","[[0, 0, 0, 0, 0], [0, 0, 0, 0, 0], [0, 0, 0, 0, 0]]","[2, 10, 18]",16,17,3,0.047,0.035333333333333335,0.011666666666666667,"[5, 6, 7, 8, 9, 14, 13, 12, 11, 10, 0, 1, 2, 3, 4]",15,5,3,18298,35,142,107,medium,1,traffic-light-mouselab,21,607282,6,1,5,10,6
traffic-light-mouselab,False,3,1,"[0, 0, 0, 1, 1, 1, 1, 2, 2, 2, 2, 3, 3, 3, 4, 4, 4, 5, 5, 5, 6, 6, 6, 7, 7, 7, 8, 8, 8, 9, 9, 9, 10, 11, 12, 13, 14]","[[6, 5, 4, 5, 7], [2, 0, 2, 6, 3], [5, 5, 5, 5, 6]]","[[0, 0, 0, 0, 0], [0, 0, 0, 0, 0], [0, 0, 0, 0, 0]]","[18, 2, 10]",16,18,4,0.064,0.052333333333333336,0.011666666666666667,"[0, 1, 2, 3, 4, 5, 6, 7, 8, 9, 10, 11, 12, 13, 14]",15,5,3,17412,35,192,157,medium,2,traffic-light-mouselab,22,627941,6,1,5,10,6
traffic-light-mouselab,False,3,1,"[0, 0, 0, 1, 1, 1, 2, 2, 2, 3, 3, 3, 4, 4, 4, 5, 5, 6, 7, 8, 9, 14, 14, 14, 13, 13, 13, 13, 12, 12, 12, 11, 11, 11, 10, 10, 10]","[[1, 5, 8, 4, 7], [7, 6, 3, 4, 3], [4, 8, 5, 10, 4]]","[[0, 0, 0, 0, 0], [0, 0, 0, 0, 0], [0, 0, 0, 0, 0]]","[18, 10, 2]",16,19,3,0.044,0.03233333333333333,0.011666666666666667,"[0, 1, 2, 3, 4, 5, 6, 7, 8, 9, 14, 13, 12, 11, 10]",15,5,3,12266,35,132,97,medium,1,traffic-light-mouselab,23,641357,4,0,6,10,6
traffic-light-mouselab,False,3,1,"[0, 0, 0, 1, 1, 1, 1, 2, 2, 2, 3, 3, 3, 4, 4, 4, 5, 5, 5, 6, 6, 6, 7, 7, 7, 8, 8, 8, 9, 9, 9, 10, 11, 12, 13, 14]","[[5, 5, 6, 6, 7], [3, 7, 6, 5, 5], [6, 3, 3, 2, 7]]","[[0, 0, 0, 0, 0], [0, 0, 0, 0, 0], [0, 0, 0, 0, 0]]","[10, 2, 18]",16,20,4,0.069,0.05733333333333334,0.011666666666666667,"[0, 1, 2, 3, 4, 5, 6, 7, 8, 9, 10, 11, 12, 13, 14]",15,5,3,12920,35,206,171,hi,2,traffic-light-mouselab,24,655861,7,1,5,18,6
traffic-light-mouselab,False,3,1,"[0, 0, 1, 1, 1, 0, 1, 2, 2, 2, 3, 3, 3, 3, 4, 4, 4, 5, 6, 7, 8, 9, 10, 10, 10, 11, 11, 11, 11, 12, 12, 12, 13, 13, 13, 14, 14, 14]","[[4, 7, 3, 5, 5], [6, 7, 6, 2, 8], [7, 6, 7, 7, 8]]","[[0, 0, 0, 0, 0], [0, 0, 0, 0, 0], [0, 0, 0, 0, 0]]","[2, 10, 18]",16,21,1,0.064,0.052333333333333336,0.011666666666666667,"[1, 0, 2, 3, 4, 5, 6, 7, 8, 9, 10, 11, 12, 13, 14]",15,5,3,15321,35,192,157,medium,1,traffic-light-mouselab,25,672517,7,0,5,10,6
traffic-light-mouselab,False,3,1,"[0, 0, 0, 1, 1, 1, 1, 2, 2, 2, 3, 3, 3, 4, 4, 4, 5, 6, 7, 8, 9, 10, 10, 10, 11, 11, 11, 11, 12, 12, 12, 13, 13, 13, 14, 14, 14]","[[5, 7, 6, 5, 5], [5, 4, 5, 7, 7], [4, 5, 3, 6, 7]]","[[0, 0, 0, 0, 0], [0, 0, 0, 0, 0], [0, 0, 0, 0, 0]]","[18, 10, 2]",16,22,4,0.058,0.04633333333333334,0.011666666666666667,"[0, 1, 2, 3, 4, 5, 6, 7, 8, 9, 10, 11, 12, 13, 14]",15,5,3,13631,35,174,139,medium,1,traffic-light-mouselab,26,687284,7,1,5,10,6
traffic-light-mouselab,False,3,1,"[0, 0, 0, 1, 1, 1, 2, 2, 2, 3, 3, 3, 4, 4, 4, 5, 6, 7, 8, 9, 10, 10, 11, 11, 10, 10, 11, 11, 12, 12, 12, 12, 13, 13, 13, 13, 14, 14, 14]","[[5, 7, 8, 4, 7], [5, 5, 2, 5, 4], [6, 8, 5, 5, 5]]","[[0, 0, 0, 0, 0], [0, 0, 0, 0, 0], [0, 0, 0, 0, 0]]","[10, 18, 2]",16,23,1,0.059,0.04733333333333333,0.011666666666666667,"[0, 1, 2, 3, 4, 5, 6, 7, 8, 9, 10, 11, 12, 13, 14]",15,5,3,14362,35,176,141,hi,1,traffic-light-mouselab,27,702796,5,1,5,18,6
traffic-light-mouselab,False,3,1,"[0, 1, 2, 3, 4, 5, 5, 5, 6, 6, 6, 7, 7, 7, 8, 8, 8, 9, 9, 9, 10, 10, 10, 11, 11, 11, 12, 12, 12, 13, 13, 13, 14, 14, 14]","[[7, 3, 6, 4, 8], [4, 8, 3, 7, 5], [5, 5, 7, 9, 4]]","[[0, 0, 0, 0, 0], [0, 0, 0, 0, 0], [0, 0, 0, 0, 0]]","[2, 18, 10]",16,24,2,0.045,0.03333333333333333,0.011666666666666667,"[0, 1, 2, 3, 4, 5, 6, 7, 8, 9, 10, 11, 12, 13, 14]",15,5,3,18505,35,136,101,low,0,traffic-light-mouselab,28,722917,6,0,5,2,6
traffic-light-mouselab,False,3,1,"[0, 0, 0, 1, 1, 1, 2, 2, 2, 3, 3, 3, 4, 4, 4, 5, 6, 7, 8, 9, 10, 10, 10, 11, 11, 11, 12, 12, 12, 13, 13, 13, 14, 14, 14]","[[3, 6, 4, 3, 5], [5, 4, 3, 4, 7], [6, 6, 5, 2, 6]]","[[0, 0, 0, 0, 0], [0, 0, 0, 0, 0], [0, 0, 0, 0, 0]]","[2, 10, 18]",16,25,4,0.063,0.051333333333333335,0.011666666666666667,"[0, 1, 2, 3, 4, 5, 6, 7, 8, 9, 10, 11, 12, 13, 14]",15,5,3,15136,35,188,153,medium,1,traffic-light-mouselab,29,739257,7,1,5,10,6
traffic-light-mouselab,False,3,1,"[0, 0, 0, 1, 1, 1, 2, 2, 2, 3, 3, 3, 4, 4, 4, 5, 6, 7, 8, 9, 14, 14, 14, 13, 13, 13, 13, 12, 12, 12, 11, 11, 11, 10, 10, 10]","[[4, 2, 4, 5, 3], [5, 7, 5, 6, 5], [5, 5, 6, 8, 5]]","[[0, 0, 0, 0, 0], [0, 0, 0, 0, 0], [0, 0, 0, 0, 0]]","[10, 2, 18]",16,26,3,0.069,0.05733333333333334,0.011666666666666667,"[0, 1, 2, 3, 4, 5, 6, 7, 8, 9, 14, 13, 12, 11, 10]",15,5,3,11923,35,206,171,low,1,traffic-light-mouselab,30,752464,6,0,5,2,6
traffic-light-mouselab,False,3,1,"[0, 0, 0, 1, 1, 1, 2, 2, 2, 3, 3, 3, 4, 4, 4, 5, 6, 7, 9, 8, 10, 10, 10, 11, 11, 11, 12, 12, 12, 13, 13, 13, 14, 14, 14]","[[1, 8, 4, 7, 4], [7, 3, 2, 6, 6], [6, 7, 3, 8, 4]]","[[0, 0, 0, 0, 0], [0, 0, 0, 0, 0], [0, 0, 0, 0, 0]]","[10, 2, 18]",16,27,3,0.075,0.06333333333333332,0.011666666666666667,"[0, 1, 2, 3, 4, 5, 6, 7, 9, 8, 10, 11, 12, 13, 14]",15,5,3,13381,35,226,191,low,1,traffic-light-mouselab,31,767043,6,0,5,2,6
traffic-light-mouselab,False,3,1,"[0, 0, 0, 1, 1, 1, 2, 2, 2, 3, 3, 3, 4, 4, 4, 6, 5, 5, 6, 6, 5, 7, 7, 7, 7, 8, 8, 8, 9, 9, 9, 10, 11, 12, 13, 14]","[[2, 3, 4, 6, 6], [8, 4, 5, 7, 5], [4, 5, 5, 4, 5]]","[[0, 0, 0, 0, 0], [0, 0, 0, 0, 0], [0, 0, 0, 0, 0]]","[18, 10, 2]",16,28,4,0.056,0.044333333333333336,0.011666666666666667,"[0, 1, 2, 3, 4, 6, 5, 7, 8, 9, 10, 11, 12, 13, 14]",15,5,3,18298,35,168,133,low,2,traffic-light-mouselab,32,786611,5,1,5,2,6
traffic-light-mouselab,False,3,1,"[0, 0, 0, 1, 1, 1, 2, 2, 2, 3, 3, 4, 4, 9, 9, 9, 8, 8, 8, 8, 8, 8, 7, 7, 7, 7, 6, 6, 6, 6, 5, 5, 5, 10, 10, 10, 11, 11, 11, 12, 12, 12, 13, 13, 13, 14, 14, 14]","[[4, 5, 3, 7, 5], [5, 5, 4, 4, 4], [4, 7, 4, 5, 6]]","[[0, 0, 0, 0, 0], [0, 0, 0, 0, 0], [0, 0, 0, 0, 0]]","[10, 2, 18]",16,29,1,0.062,0.050333333333333334,0.011666666666666667,"[0, 1, 2, 3, 4, 9, 8, 7, 6, 5, 10, 11, 12, 13, 14]",15,5,3,15284,35,186,151,medium,0,traffic-light-mouselab,33,803132,5,0,13,10,6
traffic-light-mouselab,False,3,1,"[0, 1, 2, 3, 4, 5, 5, 5, 6, 6, 6, 6, 7, 7, 7, 8, 8, 8, 9, 9, 9, 10, 10, 10, 11, 11, 11, 12, 12, 12, 12, 13, 13, 13, 14, 14, 14]","[[4, 1, 6, 5, 6], [3, 6, 2, 7, 4], [2, 2, 6, 5, 5]]","[[0, 0, 0, 0, 0], [0, 0, 0, 0, 0], [0, 0, 0, 0, 0]]","[10, 18, 2]",16,30,3,0.062,0.050333333333333334,0.011666666666666667,"[0, 1, 2, 3, 4, 5, 6, 7, 8, 9, 10, 11, 12, 13, 14]",15,5,3,16479,35,186,151,medium,0,traffic-light-mouselab,34,820914,5,0,5,10,6
traffic-light-mouselab,False,3,1,"[1, 3, 0, 2, 4, 5, 5, 5, 6, 6, 6, 6, 7, 7, 7, 7, 8, 8, 8, 9, 9, 9, 10, 10, 10, 11, 11, 11, 11, 12, 12, 12, 12, 13, 13, 13, 14, 14, 14]","[[8, 5, 5, 3, 4], [5, 5, 5, 5, 5], [5, 5, 6, 6, 3]]","[[0, 0, 0, 0, 0], [0, 0, 0, 0, 0], [0, 0, 0, 0, 0]]","[10, 2, 18]",16,31,0,0.06,0.04833333333333333,0.011666666666666667,"[1, 3, 0, 2, 4, 5, 6, 7, 8, 9, 10, 11, 12, 13, 14]",15,5,3,13793,35,180,145,medium,0,traffic-light-mouselab,35,836148,8,1,5,10,6
traffic-light-mouselab,False,3,1,"[5, 5, 0, 0, 0, 0, 1, 1, 1, 1, 2, 2, 2, 2, 3, 3, 3, 4, 4, 4, 4, 5, 6, 6, 6, 6, 7, 7, 7, 8, 8, 8, 9, 9, 9, 10, 11, 12, 13, 14]","[[6, 3, 5, 4, 1], [6, 6, 6, 3, 6], [4, 9, 6, 4, 5]]","[[0, 0, 0, 0, 0], [0, 0, 0, 0, 0], [0, 0, 0, 0, 0]]","[10, 18, 2]",16,32,1,0.052,0.04033333333333333,0.011666666666666667,"[0, 1, 2, 3, 4, 5, 6, 7, 8, 9, 10, 11, 12, 13, 14]",15,5,3,13473,35,156,121,low,2,traffic-light-mouselab,36,851266,9,1,5,2,6
traffic-light-mouselab,False,3,1,"[0, 0, 0, 0, 1, 1, 1, 1, 2, 2, 2, 2, 3, 3, 3, 3, 4, 4, 4, 5, 6, 7, 8, 9, 10, 10, 10, 11, 11, 11, 11, 12, 12, 12, 13, 13, 13, 13, 14, 14, 14]","[[6, 7, 4, 4, 5], [6, 7, 7, 7, 4], [4, 4, 7, 3, 3]]","[[0, 0, 0, 0, 0], [0, 0, 0, 0, 0], [0, 0, 0, 0, 0]]","[18, 2, 10]",16,33,1,0.06,0.04833333333333333,0.011666666666666667,"[0, 1, 2, 3, 4, 5, 6, 7, 8, 9, 10, 11, 12, 13, 14]",15,5,3,15037,35,180,145,low,1,traffic-light-mouselab,37,867493,7,1,5,2,6
traffic-light-mouselab,True,3,1,"[10, 10, 10, 12, 12, 12]","[[6, 7, 9, 6, 6], [5, 4, 4, 5, 3], [6, 6, 4, 5, 7]]","[[1, 1, 1, 1, 1], [3, 3, 3, 3, 3], [0, 3, 0, 3, 3]]","[2, 10, 18]",16,1,0,0.057,0.055,0.002,"[10, 12]",2,5,3,18868,6,170,164,low,0,traffic-light-mouselab,4,200978,6,0,0,2,7
traffic-light-mouselab,True,3,1,"[1, 1, 1, 4, 4, 4, 3, 3, 3, 3]","[[3, 5, 6, 7, 5], [5, 3, 5, 2, 7], [7, 6, 5, 3, 3]]","[[3, 0, 3, 0, 0], [1, 1, 1, 1, 1], [3, 3, 3, 3, 3]]","[18, 10, 2]",16,2,3,0.051,0.047999999999999994,0.003,"[1, 4, 3]",3,5,3,9264,9,152,143,medium,1,traffic-light-mouselab,5,212646,2,0,0,10,7
traffic-light-mouselab,True,3,1,"[6, 7, 7, 8, 9, 5]","[[4, 7, 6, 5, 6], [3, 5, 7, 4, 6], [6, 4, 5, 6, 4]]","[[3, 3, 3, 3, 3], [0, 0, 0, 0, 0], [3, 3, 3, 3, 3]]","[2, 18, 10]",16,3,2,0.063,0.06133333333333334,0.0016666666666666668,"[6, 7, 8, 9, 5]",5,5,3,10955,5,188,183,hi,1,traffic-light-mouselab,6,225113,7,1,6,18,7
traffic-light-mouselab,False,3,1,"[10, 11, 12]","[[1, 5, 3, 2, 6], [7, 4, 5, 6, 4], [7, 5, 4, 6, 6]]","[[3, 3, 3, 3, 3], [3, 3, 3, 3, 3], [0, 0, 0, 1, 1]]","[2, 18, 10]",16,4,0,0.066,0.065,0.001,"[10, 11, 12]",3,5,3,7248,3,198,195,medium,2,traffic-light-mouselab,8,235376,7,1,3,10,7
traffic-light-mouselab,False,3,1,"[0, 1, 2]","[[8, 6, 5, 3, 1], [6, 7, 7, 8, 7], [7, 5, 8, 2, 6]]","[[0, 0, 0, 1, 1], [3, 3, 3, 3, 3], [3, 3, 3, 3, 3]]","[18, 2, 10]",16,5,0,0.075,0.074,0.001,"[0, 1, 2]",3,5,3,5806,3,226,223,hi,0,traffic-light-mouselab,9,242194,8,1,3,18,7
traffic-light-mouselab,False,3,1,"[10, 11, 13]","[[5, 4, 6, 4, 5], [5, 4, 6, 6, 4], [5, 4, 2, 7, 0]]","[[3, 3, 3, 3, 3], [3, 3, 3, 3, 3], [0, 0, 1, 0, 1]]","[10, 2, 18]",16,6,3,0.059,0.057999999999999996,0.001,"[10, 11, 13]",3,5,3,3849,3,178,175,hi,2,traffic-light-mouselab,10,247111,7,1,3,18,7
traffic-light-mouselab,False,3,1,"[10, 12, 14]","[[5, 5, 5, 4, 5], [4, 8, 4, 5, 2], [4, 3, 1, 9, 8]]","[[3, 3, 3, 3, 3], [3, 3, 3, 3, 3], [0, 1, 0, 1, 0]]","[10, 2, 18]",16,7,4,0.066,0.065,0.001,"[10, 12, 14]",3,5,3,3906,3,198,195,hi,2,traffic-light-mouselab,11,252114,8,0,3,18,7
traffic-light-mouselab,False,3,1,"[10, 12, 14, 13, 11]","[[4, 6, 4, 6, 7], [5, 6, 6, 7, 8], [5, 7, 6, 2, 5]]","[[3, 3, 3, 3, 3], [3, 3, 3, 3, 3], [0, 0, 0, 0, 0]]","[10, 2, 18]",16,8,1,0.066,0.06433333333333334,0.0016666666666666668,"[10, 12, 14, 13, 11]",5,5,3,6509,5,198,193,hi,2,traffic-light-mouselab,12,259989,7,1,5,18,7
traffic-light-mouselab,False,3,1,"[10, 5, 6, 7, 8]","[[6, 5, 6, 5, 5], [4, 4, 5, 7, 4], [5, 5, 8, 2, 2]]","[[3, 3, 3, 3, 3], [0, 0, 0, 0, 1], [2, 3, 3, 3, 3]]","[10, 18, 2]",16,9,3,0.06,0.058333333333333334,0.0016666666666666668,"[5, 6, 7, 8]",4,5,3,8949,5,180,175,hi,1,traffic-light-mouselab,13,270197,7,1,4,18,7
traffic-light-mouselab,False,3,1,[0],"[[8, 5, 6, 8, 4], [3, 4, 6, 4, 7], [3, 6, 7, 6, 5]]","[[0, 1, 1, 1, 1], [3, 3, 3, 3, 3], [3, 3, 3, 3, 3]]","[10, 2, 18]",16,10,0,0.047,0.04666666666666667,0.0003333333333333333,[0],1,5,3,2590,1,140,139,medium,0,traffic-light-mouselab,14,273808,8,1,1,10,7
traffic-light-mouselab,False,3,1,"[11, 10, 13, 12]","[[5, 3, 5, 6, 3], [7, 9, 7, 3, 4], [2, 5, 7, 2, 5]]","[[3, 3, 3, 3, 3], [3, 3, 3, 3, 3], [0, 0, 0, 0, 1]]","[2, 18, 10]",16,11,2,0.069,0.06766666666666667,0.0013333333333333333,"[11, 10, 13, 12]",4,5,3,4867,4,206,202,medium,2,traffic-light-mouselab,15,280040,7,1,4,10,7
traffic-light-mouselab,False,3,1,"[5, 7, 8]","[[7, 4, 4, 2, 7], [6, 3, 4, 7, 4], [2, 5, 5, 4, 5]]","[[3, 3, 3, 3, 3], [0, 1, 0, 0, 1], [3, 3, 3, 3, 3]]","[2, 10, 18]",16,12,3,0.049,0.048,0.001,"[5, 7, 8]",3,5,3,3955,3,146,143,medium,1,traffic-light-mouselab,16,285361,7,1,3,10,7
traffic-light-mouselab,False,3,1,"[11, 10]","[[3, 6, 4, 6, 5], [4, 10, 5, 5, 4], [6, 5, 4, 6, 8]]","[[3, 3, 3, 3, 3], [3, 3, 3, 3, 3], [0, 0, 1, 1, 1]]","[18, 2, 10]",16,13,0,0.041,0.04033333333333333,0.0006666666666666666,"[11, 10]",2,5,3,5328,2,122,120,medium,2,traffic-light-mouselab,17,291603,6,0,2,10,7
traffic-light-mouselab,False,3,1,[],"[[4, 5, 4, 2, 3], [5, 4, 5, 6, 4], [6, 8, 9, 6, 6]]","[[3, 3, 3, 3, 3], [1, 1, 1, 1, 1], [3, 3, 3, 3, 3]]","[18, 2, 10]",16,14,1,0.059,0.059,0.0,[],0,5,3,3398,0,178,178,low,1,traffic-light-mouselab,18,296040,4,0,0,2,7
traffic-light-mouselab,False,3,1,[],"[[5, 5, 4, 3, 2], [6, 2, 6, 3, 3], [5, 6, 5, 4, 6]]","[[3, 3, 3, 3, 3], [3, 3, 3, 3, 3], [1, 1, 1, 1, 1]]","[10, 18, 2]",16,15,2,0.053,0.053,0.0,[],0,5,3,2466,0,158,158,low,2,traffic-light-mouselab,19,299785,5,0,0,2,7
traffic-light-mouselab,False,3,1,"[5, 6]","[[4, 5, 3, 5, 4], [2, 7, 7, 5, 3], [4, 4, 7, 4, 5]]","[[3, 3, 3, 3, 3], [0, 0, 1, 1, 1], [3, 3, 3, 3, 3]]","[2, 10, 18]",16,16,1,0.051,0.05033333333333333,0.0006666666666666666,"[5, 6]",2,5,3,4858,2,152,150,medium,1,traffic-light-mouselab,20,305586,7,1,2,10,7
traffic-light-mouselab,False,3,1,[],"[[5, 8, 5, 6, 4], [5, 5, 7, 3, 2], [4, 4, 5, 7, 3]]","[[1, 1, 1, 1, 1], [3, 3, 3, 3, 3], [3, 3, 3, 3, 3]]","[2, 18, 10]",16,17,2,0.062,0.062,0.0,[],0,5,3,2082,0,186,186,low,0,traffic-light-mouselab,21,309102,5,0,0,2,7
traffic-light-mouselab,False,3,1,"[5, 7]","[[4, 5, 6, 5, 4], [5, 1, 8, 7, 4], [6, 5, 2, 1, 7]]","[[3, 3, 3, 3, 3], [0, 1, 0, 1, 1], [3, 3, 3, 3, 3]]","[2, 18, 10]",16,18,2,0.059,0.05833333333333333,0.0006666666666666666,"[5, 7]",2,5,3,3137,2,176,174,hi,1,traffic-light-mouselab,22,313249,8,1,2,18,7
traffic-light-mouselab,False,3,1,"[6, 5, 8]","[[5, 6, 5, 5, 5], [6, 5, 7, 3, 5], [6, 7, 4, 4, 2]]","[[3, 3, 3, 3, 3], [0, 0, 1, 0, 1], [3, 3, 3, 3, 3]]","[2, 10, 18]",16,19,0,0.059,0.057999999999999996,0.001,"[6, 5, 8]",3,5,3,5183,3,178,175,medium,1,traffic-light-mouselab,23,319453,6,0,3,10,7
traffic-light-mouselab,False,3,1,"[1, 3, 4, 2, 0]","[[7, 1, 6, 6, 5], [4, 5, 6, 6, 5], [5, 6, 6, 8, 5]]","[[0, 0, 0, 0, 0], [3, 3, 3, 3, 3], [3, 3, 3, 3, 3]]","[2, 10, 18]",16,20,0,0.048,0.04633333333333334,0.0016666666666666668,"[1, 3, 4, 2, 0]",5,5,3,5338,5,144,139,low,0,traffic-light-mouselab,24,325926,7,1,5,2,7
traffic-light-mouselab,False,3,1,[],"[[4, 6, 6, 8, 6], [6, 4, 3, 4, 4], [4, 8, 6, 3, 9]]","[[1, 1, 1, 1, 1], [3, 3, 3, 3, 3], [3, 3, 3, 3, 3]]","[2, 18, 10]",16,21,1,0.055,0.055,0.0,[],0,5,3,3936,0,164,164,low,0,traffic-light-mouselab,25,330996,6,0,0,2,7
traffic-light-mouselab,False,3,1,"[10, 11, 11, 12, 12, 13, 14]","[[6, 4, 6, 6, 4], [6, 4, 5, 4, 8], [5, 6, 7, 5, 6]]","[[3, 3, 3, 3, 3], [3, 3, 3, 3, 3], [0, 0, 0, 0, 0]]","[10, 2, 18]",16,22,2,0.065,0.06333333333333334,0.0016666666666666668,"[10, 11, 12, 13, 14]",5,5,3,6893,5,196,191,hi,2,traffic-light-mouselab,26,339726,7,1,7,18,7
traffic-light-mouselab,False,3,1,"[5, 6, 7, 8, 8, 9]","[[4, 6, 6, 7, 3], [3, 5, 3, 3, 8], [5, 8, 5, 7, 8]]","[[3, 3, 3, 3, 3], [0, 0, 0, 0, 0], [3, 3, 3, 3, 3]]","[18, 10, 2]",16,23,4,0.05,0.04833333333333334,0.0016666666666666668,"[5, 6, 7, 8, 9]",5,5,3,6788,5,150,145,medium,1,traffic-light-mouselab,27,347600,8,1,6,10,7
traffic-light-mouselab,False,3,1,"[10, 11, 12, 13, 14]","[[7, 4, 6, 4, 6], [6, 6, 6, 10, 6], [6, 7, 6, 2, 3]]","[[3, 3, 3, 3, 3], [3, 3, 3, 3, 3], [0, 0, 0, 0, 0]]","[2, 10, 18]",16,24,1,0.065,0.06333333333333334,0.0016666666666666668,"[10, 11, 12, 13, 14]",5,5,3,3532,5,194,189,hi,2,traffic-light-mouselab,28,351999,7,1,5,18,7
traffic-light-mouselab,False,3,1,"[10, 11, 12, 13, 14]","[[7, 6, 5, 6, 5], [3, 3, 5, 3, 4], [4, 6, 5, 6, 6]]","[[3, 3, 3, 3, 3], [3, 3, 3, 3, 3], [0, 0, 0, 0, 0]]","[10, 2, 18]",16,25,1,0.058,0.05633333333333334,0.0016666666666666668,"[10, 11, 12, 13, 14]",5,5,3,9860,5,174,169,hi,2,traffic-light-mouselab,29,363003,6,1,5,18,7
traffic-light-mouselab,False,3,1,"[0, 1, 1, 2]","[[2, 3, 6, 8, 5], [7, 5, 2, 5, 3], [4, 6, 4, 8, 7]]","[[0, 0, 0, 1, 1], [3, 3, 3, 3, 3], [3, 3, 3, 3, 3]]","[10, 18, 2]",16,26,2,0.035,0.034,0.001,"[0, 1, 2]",3,5,3,3598,3,104,101,medium,0,traffic-light-mouselab,30,367583,6,0,4,10,7
traffic-light-mouselab,False,3,1,[],"[[5, 6, 7, 5, 5], [3, 3, 9, 3, 7], [2, 2, 8, 5, 10]]","[[3, 3, 3, 3, 3], [1, 1, 1, 1, 1], [3, 3, 3, 3, 3]]","[10, 2, 18]",16,27,3,0.049,0.049,0.0,[],0,5,3,3330,0,146,146,low,1,traffic-light-mouselab,31,372068,3,0,0,2,7
traffic-light-mouselab,False,3,1,[],"[[6, 7, 5, 5, 4], [3, 6, 6, 8, 6], [6, 3, 2, 2, 6]]","[[1, 1, 1, 1, 1], [3, 3, 3, 3, 3], [3, 3, 3, 3, 3]]","[2, 10, 18]",16,28,1,0.043,0.043,0.0,[],0,5,3,2256,0,128,128,low,0,traffic-light-mouselab,32,375352,7,1,0,2,7
traffic-light-mouselab,False,3,1,"[10, 11, 12, 13, 13, 14]","[[8, 4, 3, 5, 7], [5, 3, 5, 6, 7], [4, 1, 7, 2, 4]]","[[3, 3, 3, 3, 3], [3, 3, 3, 3, 3], [0, 0, 0, 0, 0]]","[10, 2, 18]",16,29,2,0.055,0.05333333333333334,0.0016666666666666668,"[10, 11, 12, 13, 14]",5,5,3,5454,5,166,161,hi,2,traffic-light-mouselab,33,381690,7,1,6,18,7
traffic-light-mouselab,False,3,1,[],"[[8, 3, 6, 5, 4], [5, 0, 7, 3, 2], [4, 7, 4, 8, 7]]","[[3, 3, 3, 3, 3], [3, 3, 3, 3, 3], [1, 1, 1, 1, 1]]","[10, 18, 2]",16,30,2,0.065,0.065,0.0,[],0,5,3,1842,0,194,194,low,2,traffic-light-mouselab,34,384716,4,0,0,2,7
traffic-light-mouselab,False,3,1,[],"[[4, 4, 6, 2, 5], [9, 3, 6, 9, 8], [7, 6, 6, 6, 5]]","[[3, 3, 3, 3, 3], [3, 3, 3, 3, 3], [1, 1, 1, 1, 1]]","[18, 10, 2]",16,31,1,0.038,0.038,0.0,[],0,5,3,1794,0,114,114,low,2,traffic-light-mouselab,35,387270,6,0,0,2,7
traffic-light-mouselab,False,3,1,[],"[[4, 8, 8, 6, 2], [3, 4, 3, 3, 4], [5, 5, 6, 3, 7]]","[[1, 1, 1, 1, 1], [3, 3, 3, 3, 3], [3, 3, 3, 3, 3]]","[2, 18, 10]",16,32,1,0.046,0.046,0.0,[],0,5,3,3158,0,138,138,low,0,traffic-light-mouselab,36,391294,8,1,0,2,7
traffic-light-mouselab,False,3,1,"[5, 6]","[[2, 4, 8, 1, 7], [4, 7, 6, 10, 4], [8, 2, 4, 4, 5]]","[[3, 3, 3, 3, 3], [0, 0, 1, 1, 1], [3, 3, 3, 3, 3]]","[18, 10, 2]",16,33,1,0.049,0.04833333333333333,0.0006666666666666666,"[5, 6]",2,5,3,4896,2,146,144,medium,1,traffic-light-mouselab,37,397315,7,0,2,10,7
traffic-light-mouselab,True,3,1,"[0, 0, 0, 11, 10, 12, 8, 8, 8, 7, 7, 7, 6, 6, 6, 5, 5, 5, 9, 9, 9, 1, 1, 1, 4, 4, 4, 14, 14]","[[4, 4, 4, 6, 4], [3, 5, 3, 4, 5], [8, 5, 5, 5, 4]]","[[0, 0, 3, 3, 0], [0, 0, 0, 0, 0], [0, 0, 0, 1, 0]]","[10, 18, 2]",16,1,1,0.047,0.03766666666666667,0.009333333333333334,"[0, 11, 10, 12, 8, 7, 6, 5, 9, 1, 4, 14]",12,5,3,38262,28,140,112,low,2,traffic-light-mouselab,4,165666,5,0,5,2,8
traffic-light-mouselab,True,3,1,"[0, 1, 2, 3, 4]","[[9, 5, 5, 3, 4], [5, 5, 4, 3, 4], [8, 5, 4, 6, 5]]","[[0, 0, 0, 0, 0], [3, 3, 3, 3, 3], [3, 3, 3, 3, 3]]","[18, 10, 2]",16,2,0,0.076,0.07433333333333333,0.0016666666666666668,"[0, 1, 2, 3, 4]",5,5,3,13411,5,228,223,hi,0,traffic-light-mouselab,5,181582,9,1,5,18,8
traffic-light-mouselab,True,3,1,"[0, 0, 0, 1, 1, 1, 2, 2, 2, 6, 3, 3, 3, 4, 4, 4, 8]","[[5, 10, 2, 7, 6], [3, 3, 6, 5, 3], [8, 5, 6, 6, 3]]","[[0, 0, 0, 0, 0], [1, 0, 1, 0, 1], [3, 3, 3, 3, 3]]","[18, 10, 2]",16,3,1,0.073,0.06733333333333333,0.005666666666666667,"[0, 1, 2, 6, 3, 4, 8]",7,5,3,16702,17,220,203,medium,1,traffic-light-mouselab,6,201068,3,0,2,10,8
traffic-light-mouselab,False,3,1,"[5, 5, 5, 6, 6, 6, 7, 7, 7, 8, 8, 8, 9, 9, 9, 2]","[[4, 5, 6, 3, 4], [5, 5, 7, 3, 5], [3, 3, 5, 4, 4]]","[[1, 1, 0, 1, 1], [0, 0, 0, 0, 0], [3, 3, 3, 3, 3]]","[10, 18, 2]",16,4,2,0.065,0.059666666666666666,0.005333333333333333,"[5, 6, 7, 8, 9, 2]",6,5,3,12806,16,196,180,medium,0,traffic-light-mouselab,8,218598,6,1,1,10,8
traffic-light-mouselab,False,3,1,"[10, 11, 12, 13, 14, 6, 1, 1, 1, 4, 4, 4, 3, 3, 3, 2, 2, 2]","[[2, 1, 7, 1, 3], [6, 8, 8, 5, 6], [1, 6, 4, 5, 5]]","[[3, 0, 0, 0, 0], [3, 2, 3, 3, 3], [0, 0, 0, 0, 0]]","[10, 2, 18]",16,5,2,0.053,0.047,0.006,"[10, 11, 12, 13, 14, 1, 4, 3, 2]",9,5,3,33021,18,158,140,hi,2,traffic-light-mouselab,9,253480,4,0,5,18,8
traffic-light-mouselab,False,3,1,"[5, 6, 7, 8, 9, 11, 11, 11, 12, 12, 12]","[[5, 7, 7, 8, 6], [5, 6, 8, 5, 5], [6, 4, 6, 5, 5]]","[[3, 3, 3, 3, 3], [0, 0, 0, 0, 0], [3, 0, 0, 3, 3]]","[2, 18, 10]",16,6,2,0.073,0.06933333333333333,0.0036666666666666666,"[5, 6, 7, 8, 9, 11, 12]",7,5,3,10537,11,218,207,hi,1,traffic-light-mouselab,10,264935,8,1,5,18,8
traffic-light-mouselab,False,3,1,"[10, 11, 12, 13, 14, 0, 0, 0, 2, 2, 2, 7, 7]","[[6, 4, 6, 6, 3], [3, 4, 6, 7, 8], [8, 3, 6, 5, 3]]","[[0, 3, 0, 3, 3], [3, 3, 1, 3, 3], [0, 0, 0, 0, 0]]","[10, 2, 18]",16,7,0,0.07,0.06566666666666668,0.004333333333333333,"[10, 11, 12, 13, 14, 0, 2]",7,5,3,18376,13,210,197,hi,2,traffic-light-mouselab,11,284561,8,1,5,18,8
traffic-light-mouselab,False,3,1,"[10, 10, 10, 11, 11, 11, 12, 12, 12, 13, 13, 13, 14, 14, 14, 2, 2, 2, 4, 4, 4, 7, 9]","[[4, 2, 7, 6, 7], [6, 4, 6, 7, 5], [5, 4, 7, 5, 7]]","[[3, 3, 0, 3, 0], [1, 1, 0, 1, 0], [0, 0, 0, 0, 0]]","[10, 2, 18]",16,8,2,0.069,0.06133333333333334,0.007666666666666666,"[10, 11, 12, 13, 14, 2, 4, 7, 9]",9,5,3,20085,23,208,185,low,1,traffic-light-mouselab,12,305694,6,0,2,2,8
traffic-light-mouselab,False,3,1,"[10, 10, 10, 11, 11, 11, 12, 12, 12, 13, 13, 13, 14, 14, 14]","[[6, 6, 6, 5, 7], [5, 3, 5, 5, 3], [4, 4, 3, 8, 3]]","[[3, 3, 3, 3, 3], [1, 1, 1, 1, 1], [0, 0, 0, 0, 0]]","[10, 2, 18]",16,9,3,0.068,0.063,0.005,"[10, 11, 12, 13, 14]",5,5,3,6747,15,204,189,low,1,traffic-light-mouselab,13,313453,5,1,0,2,8
traffic-light-mouselab,False,3,1,"[0, 0, 0, 1, 1, 1, 2, 2, 2, 3, 3, 3, 4, 4, 4, 5, 5, 5, 9, 9, 9]","[[9, 6, 5, 6, 7], [5, 7, 6, 2, 4], [6, 5, 4, 4, 5]]","[[0, 0, 0, 0, 0], [0, 3, 3, 3, 0], [1, 1, 1, 1, 1]]","[18, 10, 2]",16,10,0,0.075,0.06799999999999999,0.007,"[0, 1, 2, 3, 4, 5, 9]",7,5,3,10422,21,224,203,low,2,traffic-light-mouselab,14,324900,6,1,0,2,8
traffic-light-mouselab,False,3,1,"[5, 5, 5, 6, 6, 7, 7, 7, 8, 8, 8, 9, 9, 9, 6, 4, 4, 4, 0, 0, 0, 2, 2, 2, 12, 10]","[[7, 3, 5, 6, 5], [6, 4, 7, 4, 6], [7, 5, 7, 4, 3]]","[[0, 3, 0, 3, 0], [0, 0, 0, 0, 0], [0, 1, 0, 1, 1]]","[10, 18, 2]",16,11,0,0.064,0.05533333333333333,0.008666666666666666,"[5, 7, 8, 9, 6, 4, 0, 2, 12, 10]",10,5,3,26212,26,192,166,low,2,traffic-light-mouselab,15,352006,7,1,2,2,8
traffic-light-mouselab,False,3,1,"[5, 5, 5, 6, 6, 6, 7, 7, 7, 8, 8, 8, 9, 9, 9, 2, 0]","[[3, 3, 1, 4, 4], [8, 3, 8, 4, 3], [3, 3, 6, 3, 6]]","[[0, 1, 0, 1, 1], [0, 0, 0, 0, 0], [3, 3, 3, 3, 3]]","[10, 18, 2]",16,12,0,0.06,0.05433333333333333,0.005666666666666667,"[5, 6, 7, 8, 9, 2, 0]",7,5,3,9974,17,180,163,medium,0,traffic-light-mouselab,16,362807,3,0,2,10,8
traffic-light-mouselab,False,3,1,"[5, 6, 7, 8, 9, 10, 10, 10, 13, 13, 13, 14, 14, 14, 12, 12, 12]","[[8, 5, 4, 4, 6], [5, 0, 4, 5, 5], [3, 3, 5, 6, 2]]","[[3, 3, 3, 3, 3], [0, 0, 0, 0, 0], [0, 3, 0, 0, 0]]","[2, 18, 10]",16,13,3,0.053,0.04733333333333333,0.005666666666666667,"[5, 6, 7, 8, 9, 10, 13, 14, 12]",9,5,3,12888,17,158,141,hi,1,traffic-light-mouselab,17,376686,5,1,5,18,8
traffic-light-mouselab,False,3,1,"[10, 10, 10, 11, 11, 11, 12, 12, 12, 13, 13, 13, 14, 14, 14, 4, 4, 4, 1, 1, 1, 6, 9, 0, 0, 0, 3, 3, 3]","[[5, 4, 2, 3, 5], [5, 1, 5, 7, 7], [4, 6, 1, 3, 5]]","[[0, 0, 3, 0, 0], [1, 0, 1, 1, 0], [0, 0, 0, 0, 0]]","[10, 2, 18]",16,14,1,0.05,0.04033333333333333,0.009666666666666667,"[10, 11, 12, 13, 14, 4, 1, 6, 9, 0, 3]",11,5,3,30215,29,150,121,low,1,traffic-light-mouselab,18,407827,1,0,2,2,8
traffic-light-mouselab,False,3,1,"[0, 0, 0, 1, 1, 1, 2, 2, 2, 3, 3, 3, 4, 4, 4, 12, 13, 14]","[[3, 4, 5, 6, 5], [4, 6, 5, 6, 1], [3, 3, 5, 4, 6]]","[[0, 0, 0, 0, 0], [3, 3, 3, 3, 3], [1, 1, 0, 0, 0]]","[18, 2, 10]",16,15,4,0.051,0.045,0.006,"[0, 1, 2, 3, 4, 12, 13, 14]",8,5,3,16028,18,152,134,medium,2,traffic-light-mouselab,19,424960,6,1,3,10,8
traffic-light-mouselab,False,3,1,"[10, 10, 10, 11, 11, 11, 0, 1, 2, 3, 4, 12, 12, 12, 13, 13, 13, 14, 14, 14]","[[6, 5, 6, 8, 4], [4, 5, 7, 3, 7], [7, 8, 3, 7, 4]]","[[0, 0, 0, 0, 0], [3, 3, 3, 3, 3], [0, 0, 0, 0, 0]]","[10, 2, 18]",16,16,3,0.071,0.06433333333333333,0.006666666666666667,"[10, 11, 0, 1, 2, 3, 4, 12, 13, 14]",10,5,3,13917,20,212,192,medium,0,traffic-light-mouselab,20,439881,8,1,5,10,8
traffic-light-mouselab,False,3,1,"[5, 6, 7, 8, 9, 10, 10, 10, 11, 11, 12, 12, 12, 13, 13, 13, 14, 14, 14, 11, 0, 0, 0, 1, 1, 1]","[[9, 1, 4, 7, 6], [4, 5, 4, 6, 4], [6, 5, 4, 4, 4]]","[[0, 0, 3, 3, 3], [0, 0, 0, 0, 0], [0, 0, 0, 0, 0]]","[2, 10, 18]",16,17,0,0.055,0.04633333333333334,0.008666666666666666,"[5, 6, 7, 8, 9, 10, 12, 13, 14, 11, 0, 1]",12,5,3,16644,26,166,140,medium,1,traffic-light-mouselab,21,457340,4,0,5,10,8
traffic-light-mouselab,False,3,1,"[0, 0, 0, 1, 1, 1, 2, 2, 2, 3, 3, 3, 4, 4, 4, 8, 8, 8, 7, 7, 7, 9, 9, 9]","[[4, 3, 7, 9, 7], [3, 8, 6, 8, 2], [3, 2, 8, 6, 3]]","[[0, 0, 0, 0, 0], [3, 3, 0, 0, 0], [1, 1, 1, 1, 1]]","[18, 10, 2]",16,18,3,0.085,0.07700000000000001,0.008,"[0, 1, 2, 3, 4, 8, 7, 9]",8,5,3,11212,24,254,230,low,2,traffic-light-mouselab,22,469438,6,0,0,2,8
traffic-light-mouselab,False,3,1,"[5, 6, 7, 8, 9, 10, 10, 10, 11, 11, 11, 12, 12, 12, 13, 13, 13]","[[4, 3, 5, 0, 4], [7, 6, 6, 6, 2], [3, 5, 7, 6, 4]]","[[3, 3, 3, 3, 3], [0, 0, 0, 0, 0], [0, 0, 0, 0, 3]]","[2, 18, 10]",16,19,2,0.063,0.05733333333333333,0.005666666666666667,"[5, 6, 7, 8, 9, 10, 11, 12, 13]",9,5,3,11704,17,188,171,hi,1,traffic-light-mouselab,23,482086,6,0,5,18,8
traffic-light-mouselab,False,3,1,"[0, 1, 2, 3, 4, 5, 5, 5, 7, 7, 7, 9, 9, 9]","[[7, 4, 7, 4, 7], [6, 7, 3, 4, 5], [5, 5, 2, 5, 4]]","[[0, 0, 0, 0, 0], [0, 3, 0, 3, 0], [3, 3, 3, 3, 3]]","[18, 10, 2]",16,20,0,0.065,0.060333333333333336,0.004666666666666667,"[0, 1, 2, 3, 4, 5, 7, 9]",8,5,3,9272,14,196,182,hi,0,traffic-light-mouselab,24,492111,7,1,5,18,8
traffic-light-mouselab,False,3,1,"[5, 6, 7, 8, 9, 0, 0, 0, 2, 2, 2, 3, 3, 3, 0]","[[7, 6, 5, 3, 6], [6, 3, 6, 6, 3], [3, 2, 3, 4, 5]]","[[0, 3, 0, 0, 3], [0, 0, 0, 0, 0], [3, 3, 3, 3, 3]]","[10, 18, 2]",16,21,0,0.061,0.05633333333333333,0.004666666666666667,"[5, 6, 7, 8, 9, 0, 2, 3]",8,5,3,10606,14,184,170,hi,1,traffic-light-mouselab,25,503363,6,1,5,18,8
traffic-light-mouselab,False,3,1,"[5, 6, 7, 8, 9]","[[5, 3, 4, 4, 5], [8, 5, 5, 10, 4], [4, 7, 8, 2, 4]]","[[3, 3, 3, 3, 3], [0, 0, 0, 0, 0], [3, 3, 3, 3, 3]]","[2, 18, 10]",16,22,3,0.069,0.06733333333333334,0.0016666666666666668,"[5, 6, 7, 8, 9]",5,5,3,3472,5,208,203,hi,1,traffic-light-mouselab,26,509029,10,1,5,18,8
traffic-light-mouselab,False,3,1,"[5, 5, 5, 6, 6, 6, 7, 7, 7, 8, 8, 8, 9, 9, 9, 10, 10, 10, 12, 12, 12, 11, 11, 11]","[[5, 5, 4, 8, 5], [7, 6, 8, 5, 6], [4, 5, 1, 7, 7]]","[[1, 1, 1, 1, 1], [0, 0, 0, 0, 0], [0, 0, 0, 3, 3]]","[2, 18, 10]",16,23,0,0.059,0.051,0.008,"[5, 6, 7, 8, 9, 10, 12, 11]",8,5,3,11018,24,176,152,low,0,traffic-light-mouselab,27,520768,5,0,0,2,8
traffic-light-mouselab,False,3,1,"[10, 10, 10, 5, 6, 7, 8, 9, 11, 11, 12, 12, 12, 13, 13, 13, 14, 14, 14, 11]","[[6, 8, 5, 5, 4], [5, 7, 5, 3, 6], [7, 7, 6, 8, 7]]","[[3, 3, 3, 3, 3], [0, 0, 0, 0, 0], [0, 0, 0, 0, 0]]","[2, 10, 18]",16,24,1,0.071,0.06433333333333333,0.006666666666666667,"[10, 5, 6, 7, 8, 9, 12, 13, 14, 11]",10,5,3,16140,20,212,192,medium,1,traffic-light-mouselab,28,537826,7,1,5,10,8
traffic-light-mouselab,False,3,1,"[0, 1, 2, 3, 4, 5, 5, 5, 6, 6, 6, 7, 7, 7, 8, 8, 8, 9, 9, 9]","[[5, 3, 5, 6, 4], [5, 5, 1, 5, 6], [6, 5, 3, 9, 3]]","[[0, 0, 0, 0, 0], [0, 0, 0, 0, 0], [3, 3, 3, 3, 3]]","[10, 18, 2]",16,25,3,0.056,0.04933333333333333,0.006666666666666667,"[0, 1, 2, 3, 4, 5, 6, 7, 8, 9]",10,5,3,14700,20,168,148,medium,0,traffic-light-mouselab,29,554886,6,1,5,10,8
traffic-light-mouselab,False,3,1,"[5, 6, 7, 8, 9, 10, 10, 10, 11, 11, 11, 12, 12, 12, 13, 13, 13, 14, 14, 14]","[[8, 4, 6, 1, 4], [6, 5, 3, 4, 7], [2, 6, 6, 5, 4]]","[[3, 3, 3, 3, 3], [0, 0, 0, 0, 0], [0, 0, 0, 0, 0]]","[2, 10, 18]",16,26,1,0.055,0.04833333333333333,0.006666666666666667,"[5, 6, 7, 8, 9, 10, 11, 12, 13, 14]",10,5,3,15450,20,166,146,medium,1,traffic-light-mouselab,30,571357,5,0,5,10,8
traffic-light-mouselab,False,3,1,"[5, 5, 5, 6, 6, 6, 7, 7, 7, 8, 8, 8, 9, 9, 9, 1, 1, 1, 2, 2, 2, 3, 3, 3, 4, 4, 4]","[[5, 4, 5, 3, 3], [3, 5, 4, 5, 4], [5, 5, 7, 5, 5]]","[[3, 0, 0, 0, 0], [0, 0, 0, 0, 0], [1, 1, 1, 1, 1]]","[10, 18, 2]",16,27,2,0.045,0.036,0.009,"[5, 6, 7, 8, 9, 1, 2, 3, 4]",9,5,3,14857,27,136,109,low,2,traffic-light-mouselab,31,587403,7,1,0,2,8
traffic-light-mouselab,False,3,1,"[10, 11, 12, 13, 14, 0, 0, 0, 3, 3, 3, 4, 4, 4]","[[2, 5, 5, 3, 3], [2, 2, 5, 7, 6], [5, 4, 2, 5, 5]]","[[0, 3, 3, 0, 0], [3, 3, 3, 3, 3], [0, 0, 0, 0, 0]]","[10, 2, 18]",16,28,3,0.045,0.04033333333333333,0.004666666666666667,"[10, 11, 12, 13, 14, 0, 3, 4]",8,5,3,13787,14,134,120,hi,2,traffic-light-mouselab,32,602153,5,1,5,18,8
traffic-light-mouselab,False,3,1,"[0, 0, 0, 1, 1, 1, 2, 2, 2, 3, 3, 3, 4, 4, 4, 7, 7, 7]","[[6, 6, 8, 6, 3], [4, 7, 5, 5, 3], [5, 5, 3, 6, 7]]","[[0, 0, 0, 0, 0], [3, 3, 0, 3, 3], [1, 1, 1, 1, 1]]","[18, 10, 2]",16,29,2,0.067,0.061000000000000006,0.006,"[0, 1, 2, 3, 4, 7]",6,5,3,7924,18,200,182,low,2,traffic-light-mouselab,33,610833,3,0,0,2,8
traffic-light-mouselab,False,3,1,"[0, 1, 2, 3, 4, 6, 6, 6, 11, 11, 11, 14, 14, 14]","[[4, 6, 4, 3, 6], [5, 6, 7, 4, 2], [2, 7, 5, 4, 3]]","[[0, 0, 0, 0, 0], [3, 0, 3, 3, 3], [3, 0, 3, 3, 0]]","[18, 2, 10]",16,30,1,0.063,0.058333333333333334,0.004666666666666667,"[0, 1, 2, 3, 4, 6, 11, 14]",8,5,3,8843,14,190,176,hi,0,traffic-light-mouselab,34,620532,6,1,5,18,8
traffic-light-mouselab,False,3,1,"[0, 0, 0, 1, 1, 1, 2, 2, 2, 3, 3, 3, 4, 4, 4, 10, 11, 12, 13, 14]","[[2, 4, 6, 3, 4], [4, 8, 4, 4, 6], [5, 5, 6, 2, 3]]","[[0, 0, 0, 0, 0], [3, 3, 3, 3, 3], [0, 0, 0, 0, 0]]","[18, 2, 10]",16,31,2,0.059,0.05233333333333333,0.006666666666666667,"[0, 1, 2, 3, 4, 10, 11, 12, 13, 14]",10,5,3,9171,20,176,156,medium,2,traffic-light-mouselab,35,630688,6,1,5,10,8
traffic-light-mouselab,False,3,1,"[0, 5, 5, 5, 6, 6, 6, 7, 7, 7, 8, 8, 8, 9, 9, 9, 2, 2, 2, 3, 3, 3, 4, 4, 4, 0, 5, 0]","[[6, 3, 3, 7, 3], [6, 5, 7, 7, 7], [5, 7, 4, 5, 4]]","[[0, 3, 0, 0, 0], [0, 0, 0, 0, 0], [1, 1, 1, 1, 1]]","[10, 18, 2]",16,32,3,0.069,0.060000000000000005,0.009,"[5, 6, 7, 8, 9, 2, 3, 4, 0]",9,5,3,13014,27,206,179,low,2,traffic-light-mouselab,36,644454,5,0,0,2,8
traffic-light-mouselab,False,3,1,"[5, 5, 5, 6, 6, 6, 7, 7, 7, 8, 8, 8, 9, 9, 9, 4, 3, 2, 1, 0]","[[5, 6, 3, 6, 5], [7, 3, 5, 2, 4], [5, 6, 5, 4, 4]]","[[0, 0, 0, 0, 0], [0, 0, 0, 0, 0], [3, 3, 3, 3, 3]]","[10, 18, 2]",16,33,0,0.062,0.05533333333333333,0.006666666666666667,"[5, 6, 7, 8, 9, 4, 3, 2, 1, 0]",10,5,3,12380,20,186,166,medium,0,traffic-light-mouselab,37,658191,5,0,5,10,8
traffic-light-mouselab,True,3,1,"[5, 0, 0, 0, 10, 10, 10, 6, 7, 8, 9, 13, 13, 13, 3, 3, 3]","[[4, 3, 3, 4, 4], [3, 4, 6, 7, 5], [2, 6, 4, 4, 6]]","[[0, 3, 3, 0, 3], [0, 0, 0, 0, 0], [0, 3, 3, 0, 3]]","[10, 2, 18]",16,1,3,0.042,0.036333333333333336,0.005666666666666667,"[5, 0, 10, 6, 7, 8, 9, 13, 3]",9,5,3,40083,17,126,109,low,1,traffic-light-mouselab,4,198801,7,1,5,2,9
traffic-light-mouselab,True,3,1,"[5, 8, 7, 6, 1, 1, 1, 11, 11, 11]","[[6, 6, 6, 5, 5], [3, 7, 1, 5, 4], [5, 2, 3, 6, 3]]","[[3, 0, 3, 3, 3], [0, 0, 0, 0, 1], [3, 0, 3, 3, 3]]","[18, 10, 2]",16,2,1,0.061,0.057666666666666665,0.0033333333333333335,"[5, 8, 7, 6, 1, 11]",6,5,3,14063,10,182,172,medium,1,traffic-light-mouselab,5,216434,7,1,4,10,9
traffic-light-mouselab,True,3,1,"[12, 7, 7, 7, 2, 2, 2, 14, 11, 6, 6, 6, 1, 1, 1]","[[7, 6, 3, 8, 8], [4, 4, 3, 6, 5], [6, 8, 7, 2, 3]]","[[3, 0, 0, 3, 3], [3, 0, 0, 3, 3], [1, 0, 0, 1, 0]]","[2, 10, 18]",16,3,1,0.065,0.060000000000000005,0.005,"[12, 7, 2, 14, 11, 6, 1]",7,5,3,10361,15,196,181,hi,2,traffic-light-mouselab,6,228810,8,1,3,18,9
traffic-light-mouselab,False,3,1,"[5, 8, 7, 6, 1, 1, 1, 11, 11, 11, 3, 3, 3, 13, 13, 13]","[[7, 3, 4, 6, 5], [2, 6, 4, 4, 3], [1, 4, 5, 4, 7]]","[[3, 0, 3, 0, 3], [0, 0, 0, 0, 1], [3, 0, 3, 0, 3]]","[2, 10, 18]",16,4,3,0.041,0.035666666666666666,0.005333333333333333,"[5, 8, 7, 6, 1, 11, 3, 13]",8,5,3,15531,16,124,108,medium,1,traffic-light-mouselab,8,258753,4,0,4,10,9
traffic-light-mouselab,False,3,1,"[1, 2, 3, 4, 0, 7, 7, 7, 8, 8, 8, 13, 13, 13]","[[5, 2, 6, 6, 3], [6, 6, 4, 5, 5], [6, 7, 5, 6, 8]]","[[0, 0, 0, 0, 0], [3, 3, 0, 0, 3], [3, 3, 3, 0, 3]]","[18, 2, 10]",16,5,3,0.059,0.05433333333333333,0.004666666666666667,"[1, 2, 3, 4, 0, 7, 8, 13]",8,5,3,15260,14,178,164,hi,0,traffic-light-mouselab,9,275914,6,1,5,18,9
traffic-light-mouselab,False,3,1,"[10, 5, 5, 5, 0, 0, 0, 12, 14, 13, 11]","[[7, 5, 2, 6, 5], [2, 7, 3, 6, 6], [8, 6, 5, 6, 6]]","[[0, 3, 3, 3, 3], [0, 3, 3, 3, 3], [0, 0, 0, 0, 0]]","[2, 10, 18]",16,6,0,0.059,0.05533333333333333,0.0036666666666666666,"[10, 5, 0, 12, 14, 13, 11]",7,5,3,12471,11,178,167,hi,2,traffic-light-mouselab,10,289512,8,1,5,18,9
traffic-light-mouselab,False,3,1,"[5, 7, 6, 9, 8, 2, 2, 2, 12, 12, 12]","[[5, 3, 7, 7, 2], [5, 6, 7, 5, 4], [4, 2, 6, 5, 3]]","[[3, 3, 0, 3, 3], [0, 0, 0, 0, 0], [3, 3, 0, 3, 3]]","[10, 18, 2]",16,7,2,0.069,0.06533333333333334,0.0036666666666666666,"[5, 7, 6, 9, 8, 2, 12]",7,5,3,6671,11,208,197,hi,1,traffic-light-mouselab,11,297619,7,1,5,18,9
traffic-light-mouselab,False,3,1,"[10, 12, 14, 13, 11, 8, 8, 8, 3, 3, 3]","[[5, 6, 8, 6, 4], [6, 9, 3, 7, 7], [2, 5, 3, 5, 3]]","[[3, 3, 3, 0, 3], [3, 3, 3, 0, 3], [0, 0, 0, 0, 0]]","[2, 10, 18]",16,8,3,0.057,0.05333333333333334,0.0036666666666666666,"[10, 12, 14, 13, 11, 8, 3]",7,5,3,9100,11,172,161,hi,2,traffic-light-mouselab,12,308064,5,1,5,18,9
traffic-light-mouselab,False,3,1,"[10, 12, 14, 9, 9, 9, 4, 4, 4]","[[7, 6, 6, 4, 6], [7, 4, 5, 6, 8], [1, 1, 4, 8, 9]]","[[3, 3, 3, 3, 0], [3, 3, 3, 3, 0], [0, 1, 0, 1, 0]]","[2, 18, 10]",16,9,4,0.082,0.079,0.003,"[10, 12, 14, 9, 4]",5,5,3,9963,9,246,237,medium,2,traffic-light-mouselab,13,319113,9,1,3,10,9
traffic-light-mouselab,False,3,1,"[10, 10, 10, 5, 5, 5, 0]","[[8, 3, 3, 4, 7], [6, 5, 7, 6, 6], [8, 5, 4, 7, 3]]","[[0, 1, 1, 1, 1], [0, 3, 3, 3, 3], [0, 3, 3, 3, 3]]","[2, 10, 18]",16,10,0,0.073,0.07066666666666666,0.0023333333333333335,"[10, 5, 0]",3,5,3,5860,7,220,213,low,0,traffic-light-mouselab,14,325953,8,1,1,2,9
traffic-light-mouselab,False,3,1,"[0, 2, 3, 4, 14, 14, 14, 9, 9, 9]","[[5, 4, 4, 5, 6], [6, 6, 9, 5, 5], [8, 4, 3, 5, 6]]","[[0, 1, 0, 0, 0], [3, 3, 3, 3, 0], [3, 3, 3, 3, 0]]","[10, 2, 18]",16,11,4,0.059,0.05566666666666666,0.0033333333333333335,"[0, 2, 3, 4, 14, 9]",6,5,3,7868,10,178,168,medium,0,traffic-light-mouselab,15,336787,6,1,4,10,9
traffic-light-mouselab,False,3,1,"[5, 5, 5, 7, 7, 7, 8, 8, 8, 9, 9, 9, 2, 4, 14, 14, 14]","[[8, 4, 0, 5, 9], [3, 4, 5, 4, 5], [6, 5, 7, 6, 2]]","[[1, 1, 0, 1, 0], [0, 3, 0, 0, 0], [3, 3, 3, 3, 0]]","[2, 18, 10]",16,12,4,0.043,0.03733333333333333,0.005666666666666667,"[5, 7, 8, 9, 2, 4, 14]",7,5,3,9370,17,128,111,low,0,traffic-light-mouselab,16,347424,9,1,2,2,9
traffic-light-mouselab,False,3,1,"[5, 6, 1, 1, 1, 11, 11, 11]","[[3, 5, 7, 4, 1], [1, 8, 7, 5, 8], [6, 6, 4, 4, 3]]","[[3, 0, 3, 3, 3], [0, 0, 1, 1, 1], [3, 0, 3, 3, 3]]","[10, 18, 2]",16,13,1,0.069,0.06633333333333334,0.0026666666666666666,"[5, 6, 1, 11]",4,5,3,6158,8,206,198,hi,1,traffic-light-mouselab,17,354778,8,1,2,18,9
traffic-light-mouselab,False,3,1,"[5, 5, 5, 7, 7, 7, 8, 8, 8, 3, 3, 3, 2, 2, 2, 12]","[[6, 4, 6, 2, 6], [0, 4, 5, 6, 7], [5, 2, 6, 5, 3]]","[[3, 3, 0, 0, 3], [0, 3, 0, 0, 3], [1, 1, 0, 1, 1]]","[10, 18, 2]",16,14,2,0.054,0.048666666666666664,0.005333333333333333,"[5, 7, 8, 3, 2, 12]",6,5,3,12935,16,162,146,low,2,traffic-light-mouselab,18,371393,6,1,1,2,9
traffic-light-mouselab,False,3,1,"[5, 0, 0, 0, 7, 8, 9, 6, 2, 2, 2, 10, 10, 10]","[[4, 5, 0, 4, 6], [7, 5, 6, 4, 5], [5, 6, 6, 7, 6]]","[[0, 3, 0, 3, 3], [0, 0, 0, 0, 0], [0, 3, 3, 3, 3]]","[18, 10, 2]",16,15,0,0.051,0.04633333333333333,0.004666666666666667,"[5, 0, 7, 8, 9, 6, 2, 10]",8,5,3,10295,14,152,138,medium,1,traffic-light-mouselab,19,382760,7,1,5,10,9
traffic-light-mouselab,False,3,1,"[5, 11, 11, 11, 1, 1, 1, 6]","[[9, 7, 7, 9, 6], [3, 7, 7, 2, 7], [4, 6, 3, 5, 1]]","[[3, 0, 3, 3, 3], [0, 0, 1, 1, 1], [3, 0, 3, 3, 3]]","[10, 2, 18]",16,16,1,0.064,0.06133333333333334,0.0026666666666666666,"[5, 11, 1, 6]",4,5,3,8787,8,192,184,low,1,traffic-light-mouselab,20,392606,7,1,2,2,9
traffic-light-mouselab,False,3,1,"[1, 1, 1, 3, 3, 3, 4, 4, 4, 8, 8, 8, 13]","[[3, 4, 4, 6, 6], [7, 4, 3, 7, 3], [3, 4, 5, 5, 3]]","[[3, 0, 3, 0, 0], [3, 3, 3, 0, 3], [1, 1, 1, 0, 1]]","[18, 10, 2]",16,17,3,0.063,0.058666666666666666,0.004333333333333333,"[1, 3, 4, 8, 13]",5,5,3,12031,13,188,175,low,2,traffic-light-mouselab,21,405470,5,1,1,2,9
traffic-light-mouselab,False,3,1,"[0, 1, 2, 3, 4, 9, 9, 9, 14, 14, 14]","[[1, 4, 2, 6, 7], [4, 7, 7, 8, 6], [3, 5, 6, 4, 5]]","[[0, 0, 0, 0, 0], [3, 3, 3, 3, 0], [3, 3, 3, 3, 0]]","[18, 10, 2]",16,18,4,0.065,0.06133333333333334,0.0036666666666666666,"[0, 1, 2, 3, 4, 9, 14]",7,5,3,7542,11,196,185,hi,0,traffic-light-mouselab,22,417721,7,1,5,18,9
traffic-light-mouselab,False,3,1,"[10, 11, 12, 13, 14, 3, 3, 3, 8, 8, 8]","[[5, 5, 3, 7, 5], [7, 6, 3, 5, 7], [6, 5, 5, 8, 4]]","[[3, 3, 3, 0, 3], [3, 3, 3, 0, 3], [0, 0, 0, 0, 0]]","[10, 2, 18]",16,19,3,0.075,0.07133333333333333,0.0036666666666666666,"[10, 11, 12, 13, 14, 3, 8]",7,5,3,6725,11,224,213,hi,2,traffic-light-mouselab,23,425551,8,1,5,18,9
traffic-light-mouselab,False,3,1,"[5, 5, 5, 7, 7, 7, 2, 2, 2, 12]","[[4, 4, 8, 4, 5], [5, 7, 7, 3, 4], [4, 3, 0, 4, 4]]","[[3, 3, 0, 3, 3], [0, 3, 0, 3, 3], [1, 1, 0, 1, 1]]","[10, 18, 2]",16,20,2,0.069,0.06566666666666668,0.0033333333333333335,"[5, 7, 2, 12]",4,5,3,8632,10,206,196,low,2,traffic-light-mouselab,24,435100,0,0,1,2,9
traffic-light-mouselab,False,3,1,"[0, 1, 3, 4, 2, 13, 8, 8, 8]","[[4, 3, 4, 5, 3], [5, 6, 3, 5, 5], [4, 5, 4, 1, 0]]","[[0, 0, 0, 0, 0], [3, 3, 3, 0, 3], [3, 3, 3, 2, 3]]","[18, 10, 2]",16,21,3,0.047,0.044,0.003,"[0, 1, 3, 4, 2, 8]",6,5,3,8400,9,142,133,hi,0,traffic-light-mouselab,25,444615,5,1,5,18,9
traffic-light-mouselab,False,3,1,"[0, 0, 0, 2, 2, 2, 3, 3, 3, 8]","[[4, 6, 3, 8, 5], [6, 5, 6, 5, 5], [4, 2, 3, 8, 5]]","[[0, 3, 0, 0, 3], [1, 1, 1, 0, 1], [3, 3, 3, 3, 3]]","[18, 10, 2]",16,22,3,0.07,0.06666666666666668,0.0033333333333333335,"[0, 2, 3, 8]",4,5,3,8869,10,210,200,medium,1,traffic-light-mouselab,26,454732,5,0,1,10,9
traffic-light-mouselab,False,3,1,"[0, 5, 5, 5]","[[6, 2, 4, 6, 5], [5, 3, 5, 5, 4], [8, 6, 7, 5, 6]]","[[0, 1, 1, 1, 1], [0, 3, 3, 3, 3], [3, 3, 3, 3, 3]]","[10, 18, 2]",16,23,0,0.055,0.05366666666666667,0.0013333333333333333,"[0, 5]",2,5,3,4452,4,166,162,medium,0,traffic-light-mouselab,27,460128,6,1,1,10,9
traffic-light-mouselab,False,3,1,"[10, 11, 12, 13, 14, 3, 3, 3]","[[3, 4, 7, 6, 5], [3, 5, 5, 4, 4], [4, 4, 3, 5, 4]]","[[3, 3, 3, 0, 3], [3, 3, 3, 3, 3], [0, 0, 0, 0, 0]]","[10, 2, 18]",16,24,3,0.053,0.050333333333333334,0.0026666666666666666,"[10, 11, 12, 13, 14, 3]",6,5,3,5324,8,158,150,hi,2,traffic-light-mouselab,28,466587,5,1,5,18,9
traffic-light-mouselab,False,3,1,"[10, 10, 10, 5]","[[3, 7, 5, 3, 3], [7, 6, 4, 5, 5], [8, 6, 7, 5, 6]]","[[3, 3, 3, 3, 3], [0, 1, 1, 1, 1], [0, 3, 3, 3, 3]]","[2, 10, 18]",16,25,0,0.073,0.07166666666666666,0.0013333333333333333,"[10, 5]",2,5,3,4874,4,220,216,medium,1,traffic-light-mouselab,29,472774,7,1,1,10,9
traffic-light-mouselab,False,3,1,"[10, 11, 12, 13, 14, 5, 5, 5]","[[8, 6, 6, 7, 4], [7, 6, 7, 2, 5], [7, 3, 3, 5, 5]]","[[3, 3, 3, 3, 3], [0, 3, 3, 3, 3], [0, 0, 0, 0, 0]]","[2, 10, 18]",16,26,0,0.071,0.06833333333333333,0.0026666666666666666,"[10, 11, 12, 13, 14, 5]",6,5,3,5422,8,212,204,hi,2,traffic-light-mouselab,30,479241,7,1,5,18,9
traffic-light-mouselab,False,3,1,"[5, 6, 8, 3, 3, 3, 0, 0, 0]","[[2, 5, 6, 6, 5], [5, 2, 6, 8, 7], [1, 3, 7, 5, 9]]","[[0, 3, 3, 0, 3], [0, 0, 1, 0, 1], [3, 3, 3, 3, 3]]","[18, 10, 2]",16,27,3,0.066,0.063,0.003,"[5, 6, 8, 3, 0]",5,5,3,7055,9,198,189,medium,1,traffic-light-mouselab,31,487510,8,1,3,10,9
traffic-light-mouselab,False,3,1,"[7, 7, 7, 9, 9, 9, 5, 5, 5, 6, 6, 6, 11, 11, 11]","[[3, 6, 3, 6, 2], [2, 6, 3, 8, 5], [3, 6, 4, 6, 10]]","[[1, 1, 1, 1, 1], [0, 0, 0, 3, 0], [3, 0, 3, 3, 3]]","[2, 18, 10]",16,28,1,0.06,0.055,0.005,"[7, 9, 5, 6, 11]",5,5,3,8843,15,180,165,low,0,traffic-light-mouselab,32,497592,6,1,0,2,9
traffic-light-mouselab,False,3,1,"[1, 1, 1, 6, 6, 6, 3, 3, 3]","[[4, 8, 8, 1, 6], [3, 3, 6, 8, 6], [4, 6, 5, 3, 7]]","[[3, 0, 3, 0, 3], [3, 0, 3, 3, 3], [1, 1, 1, 1, 1]]","[18, 10, 2]",16,29,1,0.062,0.059,0.003,"[1, 6, 3]",3,5,3,7980,9,186,177,low,2,traffic-light-mouselab,33,506465,6,0,0,2,9
traffic-light-mouselab,False,3,1,"[2, 2, 2, 4, 4, 4, 0, 0, 0, 5]","[[8, 7, 4, 7, 4], [6, 7, 2, 6, 4], [6, 8, 7, 3, 6]]","[[0, 3, 0, 3, 0], [0, 1, 1, 1, 1], [3, 3, 3, 3, 3]]","[18, 2, 10]",16,30,0,0.072,0.06866666666666667,0.0033333333333333335,"[2, 4, 0, 5]",4,5,3,8263,10,216,206,low,1,traffic-light-mouselab,34,516772,6,0,1,2,9
traffic-light-mouselab,False,3,1,"[6, 1, 1, 1]","[[5, 7, 4, 8, 6], [3, 6, 4, 4, 4], [3, 4, 6, 5, 7]]","[[3, 0, 3, 3, 3], [1, 0, 1, 1, 1], [3, 3, 3, 3, 3]]","[18, 10, 2]",16,31,1,0.065,0.06366666666666666,0.0013333333333333333,"[6, 1]",2,5,3,4142,4,194,190,medium,1,traffic-light-mouselab,35,521724,6,1,1,10,9
traffic-light-mouselab,False,3,1,"[5, 8, 7, 6, 11, 11, 11, 10, 10, 10]","[[5, 6, 8, 7, 2], [5, 6, 4, 4, 4], [2, 4, 4, 6, 6]]","[[3, 3, 3, 3, 3], [0, 0, 0, 0, 1], [0, 0, 3, 3, 3]]","[2, 10, 18]",16,32,1,0.048,0.04466666666666667,0.0033333333333333335,"[5, 8, 7, 6, 11, 10]",6,5,3,8458,10,144,134,medium,1,traffic-light-mouselab,36,531052,6,1,4,10,9
traffic-light-mouselab,False,3,1,"[0, 0, 0, 3, 3, 3, 8, 8, 8]","[[4, 8, 5, 8, 4], [8, 7, 5, 4, 4], [4, 3, 5, 5, 4]]","[[0, 3, 3, 0, 3], [3, 3, 3, 0, 3], [1, 1, 1, 1, 1]]","[18, 10, 2]",16,33,3,0.065,0.062,0.003,"[0, 3, 8]",3,5,3,6499,9,194,185,low,2,traffic-light-mouselab,37,538467,5,1,0,2,9
traffic-light-mouselab,True,3,1,[0],"[[8, 3, 6, 4, 4], [6, 7, 4, 3, 4], [5, 8, 5, 2, 5]]","[[0, 1, 1, 1, 1], [3, 3, 3, 3, 3], [3, 3, 3, 3, 3]]","[10, 18, 2]",16,1,0,0.066,0.06566666666666666,0.0003333333333333333,[0],1,5,3,7486,1,198,197,medium,0,traffic-light-mouselab,4,111463,8,1,1,10,10
traffic-light-mouselab,True,3,1,"[0, 1, 2]","[[5, 7, 4, 4, 6], [3, 2, 8, 7, 9], [6, 7, 6, 8, 8]]","[[2, 2, 2, 3, 3], [1, 1, 1, 1, 1], [3, 3, 3, 3, 3]]","[2, 18, 10]",16,2,0,0.041,0.04,0.001,[],0,5,3,12558,3,124,121,hi,1,traffic-light-mouselab,5,126343,3,0,0,18,10
traffic-light-mouselab,True,3,1,"[5, 2, 7, 9, 6, 8, 1]","[[7, 5, 6, 4, 5], [3, 5, 0, 5, 5], [4, 3, 3, 6, 8]]","[[3, 2, 2, 3, 3], [0, 0, 0, 0, 0], [3, 3, 3, 3, 3]]","[10, 2, 18]",16,3,1,0.038,0.035666666666666666,0.0023333333333333335,"[5, 7, 9, 6, 8]",5,5,3,8931,7,114,107,low,1,traffic-light-mouselab,6,136638,5,1,5,2,10
traffic-light-mouselab,False,3,1,[],"[[5, 6, 4, 7, 5], [5, 3, 7, 6, 6], [8, 6, 2, 10, 5]]","[[3, 3, 3, 3, 3], [3, 3, 3, 3, 3], [1, 1, 1, 1, 1]]","[10, 18, 2]",16,4,0,0.052,0.052,0.0,[],0,5,3,1668,0,156,156,low,2,traffic-light-mouselab,8,142113,8,0,0,2,10
traffic-light-mouselab,False,3,1,[],"[[5, 3, 6, 4, 4], [3, 5, 5, 10, 7], [6, 5, 5, 5, 6]]","[[3, 3, 3, 3, 3], [3, 3, 3, 3, 3], [1, 1, 1, 1, 1]]","[2, 18, 10]",16,5,2,0.051,0.051,0.0,[],0,5,3,1043,0,152,152,medium,2,traffic-light-mouselab,9,144347,5,0,0,10,10
traffic-light-mouselab,False,3,1,[],"[[4, 6, 6, 6, 6], [4, 8, 3, 4, 2], [7, 3, 4, 4, 5]]","[[1, 1, 1, 1, 1], [3, 3, 3, 3, 3], [3, 3, 3, 3, 3]]","[2, 18, 10]",16,6,1,0.062,0.062,0.0,[],0,5,3,1122,0,186,186,low,0,traffic-light-mouselab,10,146591,6,1,0,2,10
traffic-light-mouselab,False,3,1,[],"[[8, 7, 6, 7, 0], [7, 6, 3, 5, 7], [1, 4, 7, 7, 5]]","[[1, 1, 1, 1, 1], [3, 3, 3, 3, 3], [3, 3, 3, 3, 3]]","[10, 2, 18]",16,7,1,0.051,0.051,0.0,[],0,5,3,973,0,154,154,medium,0,traffic-light-mouselab,11,149429,7,0,0,10,10
traffic-light-mouselab,False,3,1,[],"[[5, 5, 4, 7, 5], [4, 6, 7, 5, 4], [7, 4, 8, 5, 4]]","[[1, 1, 1, 1, 1], [3, 3, 3, 3, 3], [3, 3, 3, 3, 3]]","[18, 2, 10]",16,8,1,0.047,0.047,0.0,[],0,5,3,1237,0,142,142,hi,0,traffic-light-mouselab,12,151766,5,0,0,18,10
