type,is_practice,original_item_cost,sale_item_cost,click_values,payoff_matrix,cost_matrix,weights,highlight_weight,weights_deviation,trial_num,selected_option,gross_earnings,net_earnings,click_cost,uncovered_values,num_values_revealed,num_options,num_features,reaction_time,points_click_cost,points_action_utility,points_metalevel_reward,sale_type,is_control,sale_index,trial_type,trial_index,time_elapsed,highlight_option_value,maximized_highlighted_option,highlight_num_clicks,num_highlight_reveals,participant_id
traffic-light-mouselab,True,3,1,"[5, 6, 7, 8, 9]","[[6, 6, 5, 5, 5], [7, 2, 1, 6, 8], [7, 4, 8, 6, 6]]","[[3, 3, 3, 3, 3], [0, 0, 0, 0, 0], [3, 3, 3, 3, 3]]","[16, 8, 6]",8,12,1,4,0.06,0.058333333333333334,0.0016666666666666668,"[5, 6, 7, 8, 9]",5,5,3,12702,5,180,175,none,False,1,traffic-light-mouselab,4,221719,8,1,5,5,0
traffic-light-mouselab,True,3,1,"[5, 5, 5, 6, 6, 6, 7, 7, 7, 8, 8, 8, 9, 9, 9]","[[5, 4, 7, 7, 5], [4, 1, 3, 5, 5], [2, 5, 4, 6, 5]]","[[3, 3, 3, 3, 3], [0, 0, 0, 0, 0], [3, 3, 3, 3, 3]]","[5, 17, 8]",5,14,2,3,0.056,0.051000000000000004,0.005,"[5, 6, 7, 8, 9]",5,5,3,17836,15,168,153,none,True,0,traffic-light-mouselab,5,242216,7,1,0,0,0
traffic-light-mouselab,False,3,1,"[10, 11, 12, 13, 14]","[[5, 0, 6, 5, 6], [3, 4, 6, 5, 8], [8, 8, 7, 4, 5]]","[[3, 3, 3, 3, 3], [3, 3, 3, 3, 3], [0, 0, 0, 0, 0]]","[11, 14, 5]",5,10,3,1,0.032,0.030333333333333334,0.0016666666666666668,"[10, 11, 12, 13, 14]",5,5,3,6937,5,96,91,none,False,2,traffic-light-mouselab,7,255436,8,1,5,5,0
traffic-light-mouselab,False,3,1,"[0, 1, 2, 3, 4]","[[3, 5, 5, 6, 7], [10, 9, 5, 6, 4], [4, 9, 6, 8, 4]]","[[0, 0, 0, 0, 0], [3, 3, 3, 3, 3], [3, 3, 3, 3, 3]]","[6, 7, 17]",6,14,4,3,0.071,0.06933333333333333,0.0016666666666666668,"[0, 1, 2, 3, 4]",5,5,3,7259,5,214,209,none,False,0,traffic-light-mouselab,8,266149,6,0,5,5,0
traffic-light-mouselab,False,3,1,"[0, 0, 0, 1, 1, 1, 2, 2, 2, 3, 3, 3, 4, 4, 4]","[[5, 4, 5, 4, 2], [6, 4, 1, 6, 5], [5, 3, 7, 5, 5]]","[[0, 0, 0, 0, 0], [3, 3, 3, 3, 3], [3, 3, 3, 3, 3]]","[5, 1, 24]",5,28,5,2,0.065,0.060000000000000005,0.005,"[0, 1, 2, 3, 4]",5,5,3,10327,15,194,179,none,True,0,traffic-light-mouselab,9,281750,5,1,15,5,0
traffic-light-mouselab,False,3,1,"[5, 6, 7, 8, 9]","[[5, 4, 3, 7, 6], [3, 5, 2, 6, 7], [5, 6, 4, 6, 7]]","[[3, 3, 3, 3, 3], [0, 0, 0, 0, 0], [3, 3, 3, 3, 3]]","[4, 9, 17]",9,14,6,4,0.069,0.06733333333333334,0.0016666666666666668,"[5, 6, 7, 8, 9]",5,5,3,4576,5,206,201,none,False,1,traffic-light-mouselab,10,291845,7,1,5,5,0
traffic-light-mouselab,False,3,1,"[0, 0, 0, 2, 2, 2]","[[7, 2, 4, 8, 4], [2, 4, 5, 5, 5], [1, 3, 5, 5, 0]]","[[0, 3, 0, 3, 3], [3, 3, 3, 3, 3], [3, 3, 3, 3, 3]]","[11, 13, 6]",6,8,7,0,0.036,0.033999999999999996,0.002,"[0, 2]",2,5,3,8247,6,109,103,none,True,2,traffic-light-mouselab,11,302325,1,0,0,0,0
traffic-light-mouselab,False,3,1,"[0, 1, 2, 3]","[[4, 6, 3, 7, 6], [8, 5, 1, 6, 7], [3, 8, 4, 6, 2]]","[[0, 0, 0, 0, 1], [3, 3, 3, 3, 3], [3, 3, 3, 3, 3]]","[18, 3, 9]",18,16,8,3,0.066,0.06466666666666666,0.0013333333333333333,"[0, 1, 2, 3]",4,5,3,4962,4,198,194,none,False,0,traffic-light-mouselab,12,309610,7,1,4,4,0
traffic-light-mouselab,False,3,1,[5],"[[3, 6, 7, 7, 6], [7, 3, 7, 5, 5], [5, 4, 4, 5, 7]]","[[3, 3, 3, 3, 3], [0, 1, 1, 1, 1], [3, 3, 3, 3, 3]]","[8, 2, 20]",2,20,9,0,0.046,0.04566666666666667,0.0003333333333333333,[5],1,5,3,3645,1,138,137,none,False,1,traffic-light-mouselab,13,315898,7,1,1,1,0
traffic-light-mouselab,False,3,1,"[5, 5, 5, 6, 6, 6, 7, 7, 7]","[[7, 4, 7, 5, 7], [3, 5, 8, 7, 10], [3, 4, 2, 4, 3]]","[[3, 3, 3, 3, 3], [0, 0, 0, 3, 3], [3, 3, 3, 3, 3]]","[2, 27, 1]",1,34,10,2,0.077,0.074,0.003,"[5, 6, 7]",3,5,3,9034,9,232,223,none,True,2,traffic-light-mouselab,14,327746,2,0,0,0,0
traffic-light-mouselab,False,3,1,"[10, 10, 10, 11, 11, 11, 13, 13, 13, 14, 14, 14]","[[6, 3, 5, 6, 3], [5, 4, 7, 6, 6], [3, 6, 5, 4, 7]]","[[3, 3, 3, 3, 3], [3, 3, 3, 3, 3], [0, 0, 3, 0, 0]]","[3, 25, 2]",2,30,11,4,0.058,0.054000000000000006,0.004,"[10, 11, 13, 14]",4,5,3,10525,12,173,161,none,True,2,traffic-light-mouselab,15,340095,7,1,12,4,0
traffic-light-mouselab,False,3,1,"[10, 13]","[[6, 4, 7, 6, 4], [4, 3, 5, 4, 3], [6, 2, 5, 6, 5]]","[[3, 3, 3, 3, 3], [3, 3, 3, 3, 3], [0, 1, 1, 0, 1]]","[3, 19, 8]",8,18,12,3,0.047,0.04633333333333333,0.0006666666666666666,"[10, 13]",2,5,3,7708,2,142,140,none,False,2,traffic-light-mouselab,16,350102,6,1,2,2,0
traffic-light-mouselab,False,3,1,"[5, 5, 5]","[[6, 5, 6, 6, 1], [8, 4, 5, 6, 3], [5, 6, 4, 2, 5]]","[[3, 3, 3, 3, 3], [0, 3, 3, 3, 3], [3, 3, 3, 3, 3]]","[12, 16, 2]",2,16,13,0,0.07,0.069,0.001,[5],1,5,3,5170,3,210,207,none,True,2,traffic-light-mouselab,17,357137,5,0,0,0,0
traffic-light-mouselab,False,3,1,"[10, 10, 10]","[[5, 4, 2, 2, 5], [4, 6, 9, 5, 5], [8, 6, 4, 5, 2]]","[[3, 3, 3, 3, 3], [3, 3, 3, 3, 3], [0, 3, 3, 3, 3]]","[15, 5, 10]",5,10,14,0,0.058,0.057,0.001,[10],1,5,3,6391,3,175,172,none,True,1,traffic-light-mouselab,18,365175,4,0,0,0,0
traffic-light-mouselab,False,3,1,"[5, 7, 9, 8, 6]","[[7, 5, 9, 6, 7], [5, 7, 4, 4, 3], [5, 5, 6, 7, 7]]","[[3, 3, 3, 3, 3], [0, 0, 0, 0, 0], [3, 3, 3, 3, 3]]","[10, 1, 19]",1,18,15,1,0.051,0.04933333333333333,0.0016666666666666668,"[5, 7, 9, 8, 6]",5,5,3,6898,5,152,147,none,False,1,traffic-light-mouselab,19,374822,7,1,5,5,0
traffic-light-mouselab,False,3,1,"[10, 10, 10]","[[7, 5, 6, 6, 6], [0, 5, 2, 5, 3], [6, 4, 4, 6, 3]]","[[3, 3, 3, 3, 3], [3, 3, 3, 3, 3], [0, 3, 3, 3, 3]]","[3, 14, 13]",3,14,16,0,0.033,0.032,0.001,[10],1,5,3,9211,3,99,96,none,True,0,traffic-light-mouselab,20,385969,7,1,0,0,0
traffic-light-mouselab,False,3,1,"[0, 2, 4]","[[3, 5, 3, 3, 6], [9, 0, 4, 4, 5], [4, 4, 7, 5, 5]]","[[0, 1, 0, 1, 0], [3, 3, 3, 3, 3], [3, 3, 3, 3, 3]]","[5, 6, 19]",5,18,17,4,0.052,0.051,0.001,"[0, 2, 4]",3,5,3,6085,3,155,152,none,False,0,traffic-light-mouselab,21,399325,6,1,3,3,0
traffic-light-mouselab,False,3,1,"[5, 5, 5, 2, 2, 2]","[[7, 7, 6, 7, 1], [4, 7, 6, 4, 3], [3, 3, 5, 6, 8]]","[[3, 3, 0, 3, 3], [0, 3, 3, 3, 3], [3, 3, 3, 3, 3]]","[8, 19, 3]",19,18,18,2,0.059,0.056999999999999995,0.002,"[5, 2]",2,5,3,5828,6,177,171,none,True,1,traffic-light-mouselab,22,412745,6,0,3,1,0
traffic-light-mouselab,False,3,1,"[8, 8, 8]","[[8, 4, 7, 7, 8], [4, 6, 4, 7, 6], [5, 7, 2, 5, 7]]","[[3, 3, 3, 3, 3], [3, 3, 3, 0, 3], [3, 3, 3, 3, 3]]","[6, 15, 9]",15,10,19,3,0.064,0.063,0.001,[8],1,5,3,3733,3,192,189,none,True,1,traffic-light-mouselab,23,424021,7,1,3,1,0
traffic-light-mouselab,False,3,1,"[4, 4, 4]","[[2, 5, 7, 4, 9], [9, 6, 4, 4, 6], [2, 4, 3, 3, 7]]","[[3, 3, 3, 3, 0], [3, 3, 3, 3, 3], [3, 3, 3, 3, 3]]","[4, 18, 8]",4,16,20,4,0.067,0.066,0.001,[4],1,5,3,3949,3,200,197,none,True,0,traffic-light-mouselab,24,434439,9,1,3,1,0
traffic-light-mouselab,False,3,1,[3],"[[3, 5, 4, 8, 6], [7, 4, 5, 6, 5], [3, 5, 6, 7, 3]]","[[1, 1, 1, 0, 1], [3, 3, 3, 3, 3], [3, 3, 3, 3, 3]]","[15, 3, 12]",15,14,21,3,0.074,0.07366666666666666,0.0003333333333333333,[3],1,5,3,2792,1,222,221,none,False,0,traffic-light-mouselab,25,439520,8,1,1,1,0
traffic-light-mouselab,False,3,1,"[7, 7, 7]","[[5, 3, 4, 4, 5], [5, 5, 10, 4, 7], [5, 5, 2, 2, 6]]","[[3, 3, 3, 3, 3], [3, 3, 0, 3, 3], [3, 3, 3, 3, 3]]","[16, 4, 10]",4,12,22,2,0.041,0.04,0.001,[7],1,5,3,3733,3,124,121,none,True,1,traffic-light-mouselab,26,445118,10,1,3,1,0
traffic-light-mouselab,False,3,1,"[1, 1, 1, 13, 13, 13]","[[5, 5, 7, 5, 5], [3, 6, 4, 7, 4], [5, 4, 4, 4, 4]]","[[3, 0, 3, 3, 3], [3, 3, 3, 3, 3], [3, 3, 3, 0, 3]]","[10, 9, 11]",11,2,23,1,0.049,0.047,0.002,"[1, 13]",2,5,3,8010,6,148,142,none,True,2,traffic-light-mouselab,27,458647,4,0,3,1,0
traffic-light-mouselab,False,3,1,"[4, 1]","[[4, 6, 3, 3, 5], [3, 4, 6, 5, 4], [7, 5, 6, 3, 4]]","[[1, 0, 1, 1, 0], [3, 3, 3, 3, 3], [3, 3, 3, 3, 3]]","[17, 12, 1]",17,18,24,1,0.052,0.05133333333333333,0.0006666666666666666,"[4, 1]",2,5,3,3684,2,155,153,none,False,0,traffic-light-mouselab,28,463779,6,1,2,2,0
traffic-light-mouselab,False,3,1,"[3, 3, 3, 6, 6, 6]","[[6, 3, 3, 4, 6], [4, 5, 6, 4, 6], [5, 6, 6, 8, 7]]","[[3, 3, 3, 0, 3], [3, 0, 3, 3, 3], [3, 3, 3, 3, 3]]","[9, 17, 4]",17,14,25,1,0.045,0.043,0.002,"[3, 6]",2,5,3,5146,6,136,130,none,True,1,traffic-light-mouselab,29,470388,5,0,3,1,0
traffic-light-mouselab,False,3,1,"[0, 0, 0, 14, 14, 14]","[[6, 8, 4, 4, 7], [4, 5, 3, 3, 5], [5, 7, 7, 6, 7]]","[[0, 3, 3, 3, 3], [3, 3, 3, 3, 3], [3, 3, 3, 3, 0]]","[7, 17, 6]",7,14,26,4,0.059,0.056999999999999995,0.002,"[0, 14]",2,5,3,6455,6,176,170,none,True,0,traffic-light-mouselab,30,478290,7,0,3,1,0
traffic-light-mouselab,False,3,1,"[11, 13]","[[3, 3, 5, 4, 5], [6, 8, 5, 3, 6], [6, 4, 5, 6, 3]]","[[3, 3, 3, 3, 3], [3, 3, 3, 3, 3], [1, 0, 1, 0, 1]]","[8, 5, 17]",17,14,27,3,0.05,0.04933333333333333,0.0006666666666666666,"[11, 13]",2,5,3,4560,2,149,147,none,False,2,traffic-light-mouselab,31,484426,6,1,2,2,0
traffic-light-mouselab,False,3,1,"[9, 6]","[[4, 1, 7, 5, 4], [6, 4, 6, 3, 5], [4, 6, 9, 7, 6]]","[[3, 3, 3, 3, 3], [1, 0, 1, 1, 0], [3, 3, 3, 3, 3]]","[18, 10, 2]",10,16,28,4,0.045,0.04433333333333333,0.0006666666666666666,"[9, 6]",2,5,3,4296,2,134,132,none,False,1,traffic-light-mouselab,32,490623,5,0,2,2,0
traffic-light-mouselab,False,3,1,"[11, 11, 11, 8, 8, 8]","[[5, 4, 8, 2, 7], [3, 5, 4, 5, 2], [6, 5, 4, 3, 4]]","[[3, 3, 3, 3, 3], [3, 3, 3, 0, 3], [3, 0, 3, 3, 3]]","[2, 8, 20]",20,20,29,3,0.035,0.033,0.002,"[11, 8]",2,5,3,5463,6,104,98,none,True,2,traffic-light-mouselab,33,497394,3,0,3,1,0
traffic-light-mouselab,False,3,1,"[5, 8, 9]","[[5, 5, 4, 1, 3], [2, 6, 4, 3, 5], [6, 6, 5, 5, 3]]","[[3, 3, 3, 3, 3], [0, 1, 1, 0, 0], [3, 3, 3, 3, 3]]","[4, 14, 12]",14,12,30,4,0.039,0.038,0.001,"[5, 8, 9]",3,5,3,4641,3,118,115,none,False,1,traffic-light-mouselab,34,503418,5,0,3,3,0
traffic-light-mouselab,False,3,1,"[1, 3]","[[5, 5, 4, 5, 3], [4, 3, 7, 6, 5], [1, 5, 7, 5, 7]]","[[1, 0, 1, 0, 1], [3, 3, 3, 3, 3], [3, 3, 3, 3, 3]]","[20, 8, 2]",20,20,31,3,0.053,0.05233333333333333,0.0006666666666666666,"[1, 3]",2,5,3,3235,2,158,156,none,False,0,traffic-light-mouselab,35,507891,5,1,2,2,0
traffic-light-mouselab,False,3,1,"[11, 14]","[[3, 4, 8, 7, 2], [3, 3, 6, 5, 6], [4, 6, 3, 5, 4]]","[[3, 3, 3, 3, 3], [3, 3, 3, 3, 3], [1, 0, 1, 1, 0]]","[4, 24, 2]",2,28,32,1,0.033,0.03233333333333333,0.0006666666666666666,"[11, 14]",2,5,3,3869,2,100,98,none,False,2,traffic-light-mouselab,36,513220,6,1,2,2,0
traffic-light-mouselab,True,3,1,"[6, 6, 6, 3, 3, 3, 10]","[[2, 7, 5, 7, 6], [4, 8, 4, 8, 5], [5, 7, 6, 4, 6]]","[[3, 3, 3, 0, 3], [3, 0, 3, 3, 3], [0, 1, 1, 1, 1]]","[5, 2, 23]",23,26,1,1,0.071,0.06866666666666665,0.0023333333333333335,"[6, 3, 10]",3,5,3,30236,7,212,205,none,False,2,traffic-light-mouselab,4,520264,7,1,1,1,1
traffic-light-mouselab,True,3,1,"[4, 4, 8, 8, 8, 0, 0, 0, 11, 11, 11]","[[5, 3, 2, 5, 3], [9, 5, 5, 7, 3], [4, 4, 5, 6, 4]]","[[0, 3, 3, 3, 1], [3, 3, 3, 0, 3], [3, 0, 3, 3, 3]]","[14, 4, 12]",4,12,2,3,0.057,0.05333333333333334,0.0036666666666666666,"[8, 0, 11]",3,5,3,140958,11,170,159,none,True,1,traffic-light-mouselab,5,665426,7,0,3,1,1
traffic-light-mouselab,False,3,1,"[5, 5, 5, 8, 8, 8, 2, 2, 2, 0, 0, 0, 4, 4, 4]","[[3, 2, 6, 3, 7], [5, 9, 2, 5, 6], [6, 4, 8, 3, 3]]","[[0, 3, 0, 3, 0], [0, 3, 3, 0, 3], [3, 3, 3, 3, 3]]","[1, 21, 8]",21,22,3,4,0.052,0.047,0.005,"[5, 8, 2, 0, 4]",5,5,3,24015,15,157,142,none,True,1,traffic-light-mouselab,7,705094,6,0,6,2,1
traffic-light-mouselab,False,3,1,"[5, 5, 5, 8, 8, 8, 11, 1, 1, 1, 4, 4, 4]","[[6, 3, 5, 3, 4], [5, 5, 3, 2, 9], [6, 4, 4, 5, 6]]","[[3, 0, 3, 3, 0], [0, 3, 3, 0, 3], [1, 0, 1, 1, 1]]","[6, 4, 20]",20,20,4,0,0.059,0.05466666666666666,0.004333333333333333,"[5, 8, 11, 1, 4]",5,5,3,22825,13,176,163,none,False,2,traffic-light-mouselab,8,731564,6,1,1,1,1
traffic-light-mouselab,False,3,1,"[10, 10, 10]","[[2, 3, 9, 7, 6], [6, 6, 5, 5, 4], [7, 8, 5, 5, 3]]","[[3, 3, 3, 3, 3], [3, 3, 3, 3, 3], [0, 3, 3, 3, 3]]","[20, 6, 4]",4,20,5,0,0.035,0.034,0.001,[10],1,5,3,7033,3,104,101,none,True,2,traffic-light-mouselab,9,750080,7,0,3,1,1
traffic-light-mouselab,False,3,1,"[8, 8, 8]","[[4, 3, 5, 6, 3], [6, 7, 4, 9, 4], [6, 4, 6, 2, 3]]","[[3, 3, 3, 3, 3], [3, 3, 3, 0, 3], [3, 3, 3, 3, 3]]","[26, 1, 3]",26,32,6,3,0.057,0.056,0.001,[8],1,5,3,7064,3,171,168,none,True,0,traffic-light-mouselab,10,761594,6,1,0,0,1
traffic-light-mouselab,False,3,1,"[5, 5, 5, 8, 8, 8, 11, 11, 11, 12, 12, 12, 13, 13, 13]","[[5, 4, 5, 7, 6], [4, 6, 5, 7, 4], [6, 6, 5, 5, 4]]","[[3, 3, 3, 3, 3], [0, 3, 3, 0, 3], [3, 0, 0, 0, 3]]","[13, 15, 2]",15,16,7,3,0.069,0.064,0.005,"[5, 8, 11, 12, 13]",5,5,3,18384,15,206,191,none,True,1,traffic-light-mouselab,11,782545,7,1,6,2,1
traffic-light-mouselab,False,3,1,"[10, 11, 12, 13, 14, 2, 2, 2]","[[7, 7, 8, 4, 3], [6, 3, 4, 4, 5], [4, 5, 5, 5, 4]]","[[3, 3, 0, 3, 3], [3, 3, 3, 3, 3], [0, 0, 0, 0, 0]]","[3, 26, 1]",1,32,8,2,0.044,0.04133333333333333,0.0026666666666666666,"[10, 11, 12, 13, 14, 2]",6,5,3,14366,8,133,125,none,False,2,traffic-light-mouselab,12,802825,5,1,5,5,1
traffic-light-mouselab,False,3,1,"[5, 5, 5, 6, 6, 6, 7, 7, 7, 9, 9, 9, 8, 8, 8, 13, 13, 13, 10, 10, 10]","[[7, 2, 4, 4, 3], [7, 5, 3, 8, 5], [6, 4, 4, 4, 8]]","[[3, 3, 3, 3, 3], [0, 0, 0, 0, 0], [0, 3, 3, 0, 3]]","[12, 7, 11]",11,6,9,0,0.066,0.059000000000000004,0.007,"[5, 6, 7, 9, 8, 13, 10]",7,5,3,23285,21,199,178,none,True,2,traffic-light-mouselab,13,830401,6,0,6,2,1
traffic-light-mouselab,False,3,1,"[0, 0, 0, 3, 3, 3, 2, 2, 2, 1, 1, 1, 4, 4, 4, 9, 9, 9, 6, 6, 6, 14, 14, 14]","[[5, 5, 5, 4, 7], [7, 3, 5, 6, 5], [7, 8, 9, 7, 6]]","[[0, 0, 0, 0, 0], [3, 0, 3, 3, 0], [3, 3, 3, 3, 0]]","[1, 8, 21]",21,22,10,4,0.058,0.05,0.008,"[0, 3, 2, 1, 4, 9, 6, 14]",8,5,3,24807,24,173,149,none,True,2,traffic-light-mouselab,14,857222,6,0,3,1,1
traffic-light-mouselab,False,3,1,"[5, 5, 5, 8, 8, 8, 7, 7, 7, 6, 6, 6, 9, 9, 9, 1, 1, 1, 4, 4, 4]","[[7, 5, 8, 5, 8], [3, 5, 4, 3, 4], [5, 2, 6, 6, 5]]","[[3, 0, 3, 3, 0], [0, 0, 0, 0, 0], [3, 3, 3, 3, 3]]","[4, 2, 24]",4,28,11,4,0.053,0.046,0.007,"[5, 8, 7, 6, 9, 1, 4]",7,5,3,21964,21,160,139,none,True,0,traffic-light-mouselab,15,882899,8,1,6,2,1
traffic-light-mouselab,False,3,1,"[5, 5, 5, 0, 0, 10, 10, 10, 7, 7, 7, 6, 6, 6, 8, 8, 8, 9, 9, 9, 2, 3]","[[8, 7, 3, 9, 2], [5, 3, 6, 6, 5], [5, 8, 5, 5, 5]]","[[0, 1, 0, 0, 1], [0, 0, 0, 0, 0], [0, 3, 3, 3, 3]]","[7, 2, 21]",7,22,12,3,0.06,0.053,0.007,"[5, 0, 10, 7, 6, 8, 9, 2, 3]",9,5,3,31135,21,180,159,none,False,0,traffic-light-mouselab,16,915539,9,1,4,3,1
traffic-light-mouselab,False,3,1,"[5, 5, 6, 7, 8, 9, 1, 1, 1, 4, 4, 4]","[[4, 7, 5, 6, 10], [3, 7, 4, 4, 6], [6, 7, 6, 4, 5]]","[[3, 0, 3, 3, 0], [0, 0, 0, 0, 0], [3, 3, 3, 3, 3]]","[9, 7, 14]",7,8,13,4,0.067,0.06333333333333334,0.0036666666666666666,"[5, 6, 7, 8, 9, 1, 4]",7,5,3,92061,11,202,191,none,False,1,traffic-light-mouselab,17,1010767,6,0,6,5,1
traffic-light-mouselab,False,3,1,"[10, 10, 10, 11, 11, 11, 12, 12, 12, 13, 13, 13, 14, 14, 14, 7, 7, 7, 8, 8, 8, 9, 9, 9, 2, 0, 3]","[[6, 4, 5, 5, 6], [3, 7, 7, 6, 5], [4, 0, 6, 6, 6]]","[[0, 1, 0, 0, 1], [3, 3, 0, 0, 0], [0, 0, 0, 0, 0]]","[18, 9, 3]",18,16,14,2,0.057,0.048,0.009,"[10, 11, 12, 13, 14, 7, 8, 9, 2, 0, 3]",11,5,3,32812,27,171,144,none,False,0,traffic-light-mouselab,18,1045292,5,0,3,3,1
traffic-light-mouselab,False,3,1,"[10, 11, 12, 13, 14, 5, 5, 5, 7, 7, 7, 2, 2, 2]","[[3, 5, 7, 4, 3], [4, 6, 7, 10, 4], [4, 4, 4, 3, 4]]","[[3, 3, 0, 3, 3], [0, 3, 0, 3, 3], [0, 0, 0, 0, 0]]","[22, 7, 1]",1,24,15,2,0.069,0.06433333333333334,0.004666666666666667,"[10, 11, 12, 13, 14, 5, 7, 2]",8,5,3,51124,14,207,193,none,False,2,traffic-light-mouselab,19,1098033,4,1,5,5,1
traffic-light-mouselab,False,3,1,"[5, 5, 5, 6, 6, 6, 11, 11, 11]","[[4, 5, 4, 6, 4], [5, 7, 7, 7, 4], [4, 8, 5, 7, 6]]","[[3, 3, 3, 3, 3], [0, 0, 3, 3, 3], [3, 0, 3, 3, 3]]","[15, 2, 13]",15,16,16,1,0.064,0.061,0.003,"[5, 6, 11]",3,5,3,17626,9,193,184,none,True,0,traffic-light-mouselab,20,1117359,5,0,0,0,1
traffic-light-mouselab,False,3,1,"[10, 10, 11, 12, 13, 14, 6, 6, 6, 5, 5, 5, 0, 0, 0, 1, 1, 1]","[[5, 8, 4, 6, 2], [7, 4, 6, 4, 6], [5, 6, 4, 3, 5]]","[[0, 0, 3, 3, 3], [0, 0, 3, 3, 3], [0, 0, 0, 0, 0]]","[16, 9, 5]",5,12,17,1,0.065,0.059333333333333335,0.005666666666666667,"[10, 11, 12, 13, 14, 6, 5, 0, 1]",9,5,3,26418,17,194,177,none,False,2,traffic-light-mouselab,21,1145789,6,1,6,5,1
traffic-light-mouselab,False,3,1,"[10, 10, 10, 11, 11, 11, 14, 14, 14, 4, 9, 9, 9]","[[5, 4, 3, 8, 6], [5, 5, 1, 8, 9], [5, 5, 7, 4, 9]]","[[1, 1, 1, 1, 0], [3, 3, 3, 3, 0], [0, 0, 3, 3, 0]]","[14, 13, 3]",14,14,18,4,0.076,0.07166666666666667,0.004333333333333333,"[10, 11, 14, 4, 9]",5,5,3,17784,13,228,215,none,False,0,traffic-light-mouselab,22,1165559,6,0,1,1,1
traffic-light-mouselab,False,3,1,"[0, 0, 0, 4, 4, 4, 14, 14, 14, 1, 1, 1, 11, 11, 11, 6, 6, 6]","[[4, 7, 1, 5, 8], [5, 8, 6, 3, 2], [5, 7, 5, 4, 2]]","[[0, 0, 3, 3, 0], [1, 0, 1, 1, 1], [3, 0, 3, 3, 0]]","[3, 16, 11]",16,14,19,1,0.075,0.06966666666666667,0.005333333333333333,"[0, 4, 14, 1, 11, 6]",6,5,3,29907,16,226,210,none,False,1,traffic-light-mouselab,23,1203640,8,1,3,1,1
traffic-light-mouselab,False,3,1,"[0, 0, 0, 2, 2, 2, 7, 7, 7]","[[4, 5, 8, 5, 3], [4, 3, 7, 5, 5], [7, 6, 10, 4, 5]]","[[0, 3, 0, 3, 3], [3, 3, 0, 3, 3], [3, 3, 3, 3, 3]]","[4, 11, 15]",15,12,20,2,0.086,0.08299999999999999,0.003,"[0, 2, 7]",3,5,3,16176,9,259,250,none,True,2,traffic-light-mouselab,24,1221319,10,1,0,0,1
traffic-light-mouselab,False,3,1,"[10, 10, 10, 11, 11, 11, 14, 14, 14, 13, 13, 13, 5, 5, 5]","[[6, 5, 5, 4, 5], [8, 4, 6, 5, 6], [7, 6, 3, 2, 6]]","[[3, 3, 3, 3, 3], [0, 3, 3, 3, 3], [0, 0, 3, 0, 0]]","[14, 10, 6]",10,8,21,0,0.069,0.064,0.005,"[10, 11, 14, 13, 5]",5,5,3,14369,15,206,191,none,True,1,traffic-light-mouselab,25,1237275,8,1,3,1,1
traffic-light-mouselab,False,3,1,"[10, 10, 10, 12, 12, 12, 11, 11, 11, 13, 13, 13, 14, 14, 14, 1, 1, 1, 4, 4, 4, 3, 3, 3]","[[2, 3, 5, 2, 5], [7, 5, 9, 6, 5], [0, 6, 4, 6, 6]]","[[3, 0, 3, 0, 0], [3, 3, 3, 3, 3], [0, 0, 0, 0, 0]]","[16, 8, 6]",6,12,22,4,0.052,0.044,0.008,"[10, 12, 11, 13, 14, 1, 4, 3]",8,5,3,32911,24,156,132,none,True,2,traffic-light-mouselab,26,1271715,6,1,15,5,1
traffic-light-mouselab,False,3,1,"[5, 5, 5, 7, 7, 7, 6, 6, 6, 8, 8, 8, 9, 9, 9, 10, 10, 10, 0, 0, 0, 2, 2, 2, 3, 3, 3, 4, 4, 4]","[[8, 4, 1, 3, 5], [4, 3, 4, 4, 4], [7, 6, 7, 4, 8]]","[[0, 3, 0, 0, 0], [0, 0, 0, 0, 0], [0, 3, 3, 3, 3]]","[7, 5, 18]",5,16,23,0,0.067,0.057,0.01,"[5, 7, 6, 8, 9, 10, 0, 2, 3, 4]",10,5,3,29006,30,202,172,none,True,1,traffic-light-mouselab,27,1301978,4,1,15,5,1
traffic-light-mouselab,False,3,1,"[10, 10, 10, 5, 5, 5, 12, 12, 12, 11, 11, 11, 14, 14, 14, 13, 13, 13, 8, 8, 8]","[[7, 3, 4, 3, 3], [5, 6, 8, 3, 9], [5, 4, 2, 5, 4]]","[[3, 3, 3, 3, 3], [0, 3, 3, 0, 3], [0, 0, 0, 0, 0]]","[15, 10, 5]",15,10,24,0,0.06,0.053,0.007,"[10, 5, 12, 11, 14, 13, 8]",7,5,3,22139,21,180,159,none,True,0,traffic-light-mouselab,28,1325474,7,1,0,0,1
traffic-light-mouselab,False,3,1,"[0, 0, 0, 1, 1, 1, 2, 2, 2, 3, 3, 3, 4, 4, 4, 10, 10, 10, 11, 11, 11, 6]","[[5, 5, 4, 4, 2], [3, 8, 6, 4, 4], [6, 8, 5, 4, 7]]","[[0, 0, 0, 0, 0], [1, 0, 1, 1, 1], [0, 0, 3, 3, 3]]","[2, 25, 3]",25,30,25,1,0.078,0.07066666666666667,0.007333333333333333,"[0, 1, 2, 3, 4, 10, 11, 6]",8,5,3,20652,22,234,212,none,False,1,traffic-light-mouselab,29,1347415,8,1,1,1,1
traffic-light-mouselab,False,3,1,"[10, 11, 12, 13, 14, 4, 4, 4, 9, 9, 9, 5, 5, 5, 7, 7, 7]","[[4, 5, 6, 6, 4], [6, 7, 5, 6, 6], [6, 6, 6, 6, 8]]","[[3, 3, 3, 3, 0], [0, 3, 0, 3, 0], [0, 0, 0, 0, 0]]","[17, 10, 3]",3,14,26,4,0.051,0.04533333333333333,0.005666666666666667,"[10, 11, 12, 13, 14, 4, 9, 5, 7]",9,5,3,23788,17,152,135,none,False,2,traffic-light-mouselab,30,1372280,8,1,5,5,1
traffic-light-mouselab,False,3,1,"[10, 10, 10, 11, 11, 11, 13, 13, 13, 0, 0, 0, 5, 5, 5, 6, 6, 6, 1, 1, 1, 12, 12, 12, 14, 14, 14]","[[4, 3, 5, 5, 6], [5, 3, 7, 7, 5], [8, 7, 3, 4, 2]]","[[0, 0, 3, 3, 3], [0, 0, 3, 3, 3], [0, 0, 0, 0, 0]]","[10, 16, 4]",16,12,27,0,0.051,0.041999999999999996,0.009,"[10, 11, 13, 0, 5, 6, 1, 12, 14]",9,5,3,23822,27,152,125,none,True,1,traffic-light-mouselab,31,1397296,5,0,6,2,1
traffic-light-mouselab,False,3,1,"[10, 10, 10, 14, 14, 14, 4, 4, 4, 9, 9, 9]","[[5, 5, 2, 5, 6], [4, 4, 2, 2, 7], [2, 3, 5, 5, 7]]","[[1, 1, 1, 1, 0], [3, 3, 3, 3, 0], [0, 3, 3, 3, 0]]","[11, 12, 7]",11,6,28,4,0.066,0.06266666666666668,0.0033333333333333335,"[10, 14, 4, 9]",4,5,3,11339,10,199,189,none,False,0,traffic-light-mouselab,32,1409622,6,1,3,1,1
traffic-light-mouselab,False,3,1,"[0, 0, 0, 1, 1, 2, 2, 3, 3, 13, 13, 13, 8, 8, 8, 6, 6, 6]","[[3, 6, 4, 7, 4], [5, 7, 4, 3, 6], [7, 7, 2, 5, 8]]","[[0, 0, 0, 0, 1], [3, 0, 3, 0, 3], [3, 3, 3, 0, 3]]","[8, 13, 9]",8,6,29,1,0.067,0.06266666666666668,0.004333333333333333,"[0, 1, 2, 3, 13, 8, 6]",7,5,3,20987,13,202,189,none,False,0,traffic-light-mouselab,33,1432116,6,0,9,4,1
traffic-light-mouselab,False,3,1,"[10, 10, 10, 11, 11, 11, 14, 14, 14, 4, 4, 4, 0, 0, 0, 9, 9, 9]","[[2, 5, 5, 2, 7], [3, 5, 6, 6, 7], [5, 4, 5, 5, 6]]","[[0, 3, 3, 3, 0], [3, 3, 3, 3, 0], [0, 0, 3, 3, 0]]","[11, 18, 1]",18,18,30,4,0.07,0.064,0.006,"[10, 11, 14, 4, 0, 9]",6,5,3,14373,18,209,191,none,True,1,traffic-light-mouselab,34,1447726,7,1,3,1,1
traffic-light-mouselab,False,3,1,"[5, 5, 5, 6, 6, 6, 7, 7, 12, 12, 12, 2, 2, 2]","[[4, 6, 6, 6, 5], [6, 7, 8, 7, 7], [4, 4, 4, 6, 4]]","[[3, 3, 0, 3, 3], [0, 0, 0, 1, 1], [3, 3, 0, 3, 3]]","[5, 1, 24]",1,28,31,2,0.045,0.041999999999999996,0.003,"[5, 6, 7, 12, 2]",5,5,3,10541,9,134,125,none,False,1,traffic-light-mouselab,35,1459556,8,1,8,3,1
traffic-light-mouselab,False,3,1,"[0, 0, 4, 4, 2, 2, 1, 3, 10, 10, 10, 12, 12, 12]","[[6, 5, 6, 5, 3], [2, 7, 7, 5, 4], [5, 7, 6, 6, 10]]","[[0, 0, 0, 0, 0], [3, 3, 3, 3, 3], [0, 3, 0, 3, 3]]","[4, 19, 7]",4,18,32,2,0.066,0.06233333333333334,0.0036666666666666666,"[0, 4, 2, 1, 3, 10, 12]",7,5,3,16720,11,199,188,none,False,0,traffic-light-mouselab,36,1477759,6,1,8,5,1
traffic-light-mouselab,True,3,1,"[6, 6, 6, 3, 3, 12, 12, 12, 0]","[[5, 4, 7, 4, 8], [8, 6, 4, 4, 4], [2, 6, 4, 3, 6]]","[[2, 3, 3, 1, 3], [3, 0, 3, 3, 3], [3, 3, 0, 3, 3]]","[10, 13, 7]",13,6,1,4,0.058,0.055,0.003,"[6, 12]",2,5,3,61973,9,174,165,none,True,1,traffic-light-mouselab,4,517295,4,0,3,1,2
traffic-light-mouselab,True,3,1,[],"[[7, 7, 7, 4, 2], [3, 7, 8, 5, 7], [7, 1, 4, 3, 4]]","[[1, 1, 1, 1, 1], [3, 3, 3, 3, 3], [3, 3, 3, 3, 3]]","[3, 7, 20]",3,20,2,1,0.03,0.03,0.0,[],0,5,3,9104,0,90,90,none,False,0,traffic-light-mouselab,5,531238,7,1,0,0,2
traffic-light-mouselab,False,3,1,[],"[[4, 4, 4, 7, 5], [6, 2, 6, 5, 5], [6, 4, 5, 6, 7]]","[[3, 3, 3, 3, 3], [3, 3, 3, 3, 3], [3, 3, 3, 3, 3]]","[23, 3, 4]",4,26,3,3,0.067,0.067,0.0,[],0,5,3,2720,0,200,200,none,True,2,traffic-light-mouselab,7,544734,6,0,0,0,2
traffic-light-mouselab,False,3,1,[],"[[4, 3, 5, 5, 4], [5, 6, 2, 7, 6], [4, 5, 4, 4, 6]]","[[3, 3, 3, 3, 3], [3, 3, 3, 3, 3], [3, 3, 3, 3, 3]]","[8, 10, 12]",10,4,4,0,0.043,0.043,0.0,[],0,5,3,916,0,130,130,none,True,1,traffic-light-mouselab,8,547269,5,0,0,0,2
traffic-light-mouselab,False,3,1,[],"[[4, 5, 4, 5, 6], [5, 6, 5, 3, 7], [5, 8, 3, 9, 3]]","[[3, 3, 3, 3, 3], [1, 1, 1, 1, 1], [3, 3, 3, 3, 3]]","[16, 5, 9]",5,12,5,4,0.053,0.053,0.0,[],0,5,3,1048,0,158,158,none,False,1,traffic-light-mouselab,9,550086,7,1,0,0,2
traffic-light-mouselab,False,3,1,[],"[[5, 7, 6, 6, 4], [3, 7, 6, 9, 8], [9, 3, 4, 5, 5]]","[[1, 1, 1, 1, 1], [3, 3, 3, 3, 3], [3, 3, 3, 3, 3]]","[6, 15, 9]",6,10,6,1,0.058,0.058,0.0,[],0,5,3,788,0,174,174,none,False,0,traffic-light-mouselab,10,552020,7,1,0,0,2
traffic-light-mouselab,False,3,1,[],"[[4, 4, 2, 4, 7], [3, 3, 6, 5, 3], [5, 5, 8, 3, 7]]","[[3, 3, 3, 3, 3], [3, 3, 3, 3, 3], [3, 3, 3, 3, 3]]","[2, 17, 11]",2,16,7,2,0.065,0.065,0.0,[],0,5,3,669,0,194,194,none,True,0,traffic-light-mouselab,11,554643,2,0,0,0,2
traffic-light-mouselab,False,3,1,[],"[[8, 7, 3, 3, 6], [6, 2, 4, 5, 5], [5, 6, 6, 6, 3]]","[[3, 3, 3, 3, 3], [3, 3, 3, 3, 3], [1, 1, 1, 1, 1]]","[1, 11, 18]",18,18,8,3,0.055,0.055,0.0,[],0,5,3,910,0,166,166,none,False,2,traffic-light-mouselab,12,557273,6,1,0,0,2
traffic-light-mouselab,False,3,1,[],"[[9, 7, 4, 3, 7], [6, 6, 7, 7, 4], [4, 7, 5, 6, 4]]","[[1, 1, 1, 1, 1], [3, 3, 3, 3, 3], [3, 3, 3, 3, 3]]","[2, 22, 6]",2,24,9,1,0.063,0.063,0.0,[],0,5,3,758,0,188,188,none,False,0,traffic-light-mouselab,13,559326,7,0,0,0,2
traffic-light-mouselab,False,3,1,[],"[[3, 6, 8, 5, 7], [5, 5, 6, 6, 4], [3, 4, 5, 5, 9]]","[[3, 3, 3, 3, 3], [1, 1, 1, 1, 1], [3, 3, 3, 3, 3]]","[21, 2, 7]",2,22,10,2,0.072,0.072,0.0,[],0,5,3,703,0,215,215,none,False,1,traffic-light-mouselab,14,561484,6,1,0,0,2
traffic-light-mouselab,False,3,1,[],"[[4, 4, 4, 7, 5], [2, 4, 3, 5, 3], [4, 4, 5, 6, 6]]","[[3, 3, 3, 3, 3], [3, 3, 3, 3, 3], [3, 3, 3, 3, 3]]","[1, 12, 17]",12,18,11,0,0.032,0.032,0.0,[],0,5,3,728,0,96,96,none,True,1,traffic-light-mouselab,15,563374,2,0,0,0,2
traffic-light-mouselab,False,3,1,[],"[[6, 2, 2, 2, 2], [7, 6, 7, 3, 5], [5, 5, 4, 5, 4]]","[[1, 1, 1, 1, 1], [3, 3, 3, 3, 3], [3, 3, 3, 3, 3]]","[7, 15, 8]",7,10,12,4,0.04,0.04,0.0,[],0,5,3,669,0,121,121,none,False,0,traffic-light-mouselab,16,565096,2,0,0,0,2
traffic-light-mouselab,False,3,1,[],"[[7, 9, 3, 8, 5], [1, 7, 7, 9, 4], [4, 5, 6, 3, 2]]","[[3, 3, 3, 3, 3], [3, 3, 3, 3, 3], [3, 3, 3, 3, 3]]","[5, 13, 12]",5,10,13,2,0.059,0.059,0.0,[],0,5,3,716,0,178,178,none,True,0,traffic-light-mouselab,17,567165,3,0,0,0,2
traffic-light-mouselab,False,3,1,[],"[[5, 6, 6, 4, 7], [7, 8, 5, 4, 5], [7, 6, 6, 6, 4]]","[[3, 3, 3, 3, 3], [1, 1, 1, 1, 1], [3, 3, 3, 3, 3]]","[5, 1, 24]",1,28,14,3,0.056,0.056,0.0,[],0,5,3,960,0,168,168,none,False,1,traffic-light-mouselab,18,570485,4,0,0,0,2
traffic-light-mouselab,False,3,1,[],"[[9, 5, 7, 4, 3], [3, 4, 5, 8, 2], [4, 5, 3, 8, 6]]","[[3, 3, 3, 3, 3], [3, 3, 3, 3, 3], [3, 3, 3, 3, 3]]","[5, 15, 10]",15,10,15,1,0.045,0.045,0.0,[],0,5,3,2702,0,135,135,none,True,1,traffic-light-mouselab,19,575030,4,0,0,0,2
traffic-light-mouselab,False,3,1,[],"[[6, 5, 4, 6, 5], [7, 7, 3, 4, 6], [8, 6, 5, 5, 5]]","[[3, 3, 3, 3, 3], [3, 3, 3, 3, 3], [1, 1, 1, 1, 1]]","[11, 15, 4]",4,12,16,2,0.036,0.036,0.0,[],0,5,3,713,0,109,109,none,False,2,traffic-light-mouselab,20,577030,5,0,0,0,2
traffic-light-mouselab,False,3,1,[],"[[4, 6, 8, 4, 4], [4, 5, 4, 4, 4], [2, 4, 8, 7, 2]]","[[3, 3, 3, 3, 3], [3, 3, 3, 3, 3], [3, 3, 3, 3, 3]]","[1, 22, 7]",7,24,17,3,0.047,0.047,0.0,[],0,5,3,986,0,141,141,none,True,2,traffic-light-mouselab,21,579140,7,0,0,0,2
traffic-light-mouselab,False,3,1,[],"[[7, 5, 4, 3, 7], [6, 3, 9, 6, 4], [5, 4, 6, 7, 7]]","[[3, 3, 3, 3, 3], [1, 1, 1, 1, 1], [3, 3, 3, 3, 3]]","[15, 9, 6]",9,10,18,1,0.042,0.042,0.0,[],0,5,3,645,0,126,126,none,False,1,traffic-light-mouselab,22,580865,3,0,0,0,2
traffic-light-mouselab,False,3,1,[],"[[7, 5, 1, 4, 4], [4, 5, 4, 9, 4], [6, 5, 5, 7, 6]]","[[1, 1, 1, 1, 1], [3, 3, 3, 3, 3], [3, 3, 3, 3, 3]]","[7, 15, 8]",7,10,19,0,0.052,0.052,0.0,[],0,5,3,861,0,157,157,none,False,0,traffic-light-mouselab,23,582765,7,1,0,0,2
traffic-light-mouselab,False,3,1,[],"[[4, 3, 8, 9, 4], [4, 6, 7, 5, 2], [7, 3, 7, 10, 5]]","[[3, 3, 3, 3, 3], [3, 3, 3, 3, 3], [3, 3, 3, 3, 3]]","[5, 21, 4]",4,22,20,1,0.051,0.051,0.0,[],0,5,3,729,0,153,153,none,True,2,traffic-light-mouselab,24,584535,3,0,0,0,2
traffic-light-mouselab,False,3,1,[],"[[3, 3, 4, 6, 7], [8, 6, 2, 4, 6], [7, 7, 2, 3, 1]]","[[3, 3, 3, 3, 3], [3, 3, 3, 3, 3], [1, 1, 1, 1, 1]]","[4, 17, 9]",9,14,21,2,0.023,0.023,0.0,[],0,5,3,608,0,68,68,none,False,2,traffic-light-mouselab,25,586172,2,0,0,0,2
traffic-light-mouselab,False,3,1,[],"[[5, 4, 6, 8, 9], [6, 6, 2, 8, 4], [6, 5, 5, 3, 6]]","[[3, 3, 3, 3, 3], [3, 3, 3, 3, 3], [3, 3, 3, 3, 3]]","[1, 11, 18]",1,18,22,4,0.054,0.054,0.0,[],0,5,3,695,0,161,161,none,True,0,traffic-light-mouselab,26,587824,9,1,0,0,2
traffic-light-mouselab,False,3,1,[],"[[7, 4, 4, 5, 6], [4, 8, 3, 6, 7], [6, 3, 7, 2, 7]]","[[3, 3, 3, 3, 3], [3, 3, 3, 3, 3], [3, 3, 3, 3, 3]]","[16, 7, 7]",16,12,23,3,0.045,0.045,0.0,[],0,5,3,660,0,136,136,none,True,0,traffic-light-mouselab,27,589426,5,0,0,0,2
traffic-light-mouselab,False,3,1,[],"[[7, 3, 3, 2, 2], [6, 6, 7, 5, 7], [5, 6, 4, 6, 5]]","[[1, 1, 1, 1, 1], [3, 3, 3, 3, 3], [3, 3, 3, 3, 3]]","[2, 1, 27]",2,34,24,1,0.058,0.058,0.0,[],0,5,3,616,0,174,174,none,False,0,traffic-light-mouselab,28,591032,3,0,0,0,2
traffic-light-mouselab,False,3,1,[],"[[4, 3, 4, 4, 6], [8, 6, 5, 7, 6], [1, 6, 5, 1, 3]]","[[3, 3, 3, 3, 3], [3, 3, 3, 3, 3], [3, 3, 3, 3, 3]]","[8, 11, 11]",11,4,25,2,0.047,0.047,0.0,[],0,5,3,834,0,142,142,none,True,2,traffic-light-mouselab,29,593052,5,0,0,0,2
traffic-light-mouselab,False,3,1,[],"[[5, 2, 6, 5, 2], [4, 6, 7, 5, 5], [3, 7, 1, 3, 3]]","[[3, 3, 3, 3, 3], [3, 3, 3, 3, 3], [3, 3, 3, 3, 3]]","[6, 22, 2]",22,24,26,0,0.041,0.041,0.0,[],0,5,3,960,0,124,124,none,True,1,traffic-light-mouselab,30,595131,4,0,0,0,2
traffic-light-mouselab,False,3,1,[],"[[3, 4, 8, 3, 6], [3, 4, 5, 7, 3], [3, 5, 4, 6, 2]]","[[3, 3, 3, 3, 3], [1, 1, 1, 1, 1], [3, 3, 3, 3, 3]]","[20, 5, 5]",5,20,27,2,0.068,0.068,0.0,[],0,5,3,600,0,205,205,none,False,1,traffic-light-mouselab,31,596763,5,0,0,0,2
traffic-light-mouselab,False,3,1,[],"[[2, 9, 0, 4, 6], [7, 3, 4, 5, 5], [5, 6, 4, 8, 6]]","[[3, 3, 3, 3, 3], [3, 3, 3, 3, 3], [1, 1, 1, 1, 1]]","[12, 12, 6]",6,8,28,3,0.052,0.052,0.0,[],0,5,3,501,0,156,156,none,False,2,traffic-light-mouselab,32,598263,8,1,0,0,2
traffic-light-mouselab,False,3,1,[],"[[5, 6, 2, 8, 6], [4, 6, 7, 4, 5], [6, 5, 6, 2, 4]]","[[3, 3, 3, 3, 3], [3, 3, 3, 3, 3], [3, 3, 3, 3, 3]]","[7, 21, 2]",2,22,29,1,0.059,0.059,0.0,[],0,5,3,467,0,178,178,none,True,2,traffic-light-mouselab,33,599821,5,0,0,0,2
traffic-light-mouselab,False,3,1,[],"[[7, 4, 6, 6, 4], [6, 5, 3, 5, 5], [5, 5, 6, 4, 4]]","[[1, 1, 1, 1, 1], [3, 3, 3, 3, 3], [3, 3, 3, 3, 3]]","[12, 9, 9]",12,4,30,4,0.043,0.043,0.0,[],0,5,3,712,0,129,129,none,False,0,traffic-light-mouselab,34,601621,4,0,0,0,2
traffic-light-mouselab,False,3,1,[],"[[6, 3, 6, 6, 5], [4, 5, 5, 5, 7], [1, 6, 4, 5, 5]]","[[3, 3, 3, 3, 3], [3, 3, 3, 3, 3], [3, 3, 3, 3, 3]]","[4, 4, 22]",22,24,31,3,0.051,0.051,0.0,[],0,5,3,851,0,154,154,none,True,2,traffic-light-mouselab,35,604235,5,0,0,0,2
traffic-light-mouselab,False,3,1,[],"[[4, 3, 3, 6, 6], [6, 7, 5, 3, 5], [3, 3, 7, 4, 5]]","[[3, 3, 3, 3, 3], [3, 3, 3, 3, 3], [3, 3, 3, 3, 3]]","[17, 10, 3]",10,14,32,1,0.043,0.043,0.0,[],0,5,3,681,0,130,130,none,True,1,traffic-light-mouselab,36,607571,7,1,0,0,2
traffic-light-mouselab,True,3,1,[],"[[5, 5, 3, 2, 6], [7, 6, 5, 4, 4], [5, 3, 3, 8, 7]]","[[3, 3, 3, 3, 3], [3, 3, 3, 3, 3], [1, 1, 1, 1, 1]]","[13, 14, 3]",3,14,1,1,0.053,0.053,0.0,[],0,5,3,3848,0,158,158,none,False,2,traffic-light-mouselab,4,212971,3,0,0,0,3
traffic-light-mouselab,True,3,1,[],"[[8, 4, 7, 6, 4], [6, 8, 4, 4, 7], [9, 8, 6, 5, 9]]","[[3, 3, 3, 3, 3], [3, 3, 3, 3, 3], [3, 3, 3, 3, 3]]","[7, 22, 1]",22,24,2,2,0.048,0.048,0.0,[],0,5,3,2313,0,143,143,none,True,1,traffic-light-mouselab,5,218506,4,0,0,0,3
traffic-light-mouselab,False,3,1,[],"[[4, 7, 4, 3, 8], [7, 4, 6, 4, 5], [7, 4, 4, 9, 3]]","[[3, 3, 3, 3, 3], [1, 1, 1, 1, 1], [3, 3, 3, 3, 3]]","[11, 6, 13]",6,8,3,0,0.059,0.059,0.0,[],0,5,3,3351,0,177,177,none,False,1,traffic-light-mouselab,7,228494,7,1,0,0,3
traffic-light-mouselab,False,3,1,[],"[[2, 2, 7, 7, 6], [4, 3, 7, 4, 4], [10, 4, 5, 3, 6]]","[[1, 1, 1, 1, 1], [3, 3, 3, 3, 3], [3, 3, 3, 3, 3]]","[14, 5, 11]",14,10,4,1,0.029,0.029,0.0,[],0,5,3,1090,0,87,87,none,False,0,traffic-light-mouselab,8,230934,2,0,0,0,3
traffic-light-mouselab,False,3,1,[],"[[6, 5, 3, 4, 8], [4, 5, 4, 5, 4], [6, 2, 7, 8, 6]]","[[3, 3, 3, 3, 3], [3, 3, 3, 3, 3], [3, 3, 3, 3, 3]]","[7, 8, 15]",15,10,5,2,0.053,0.053,0.0,[],0,5,3,1145,0,158,158,none,True,2,traffic-light-mouselab,9,233516,7,0,0,0,3
traffic-light-mouselab,False,3,1,[],"[[4, 4, 7, 5, 5], [9, 6, 6, 8, 5], [4, 7, 10, 6, 9]]","[[3, 3, 3, 3, 3], [3, 3, 3, 3, 3], [3, 3, 3, 3, 3]]","[2, 9, 19]",9,18,6,3,0.065,0.065,0.0,[],0,5,3,910,0,196,196,none,True,1,traffic-light-mouselab,10,235846,8,0,0,0,3
traffic-light-mouselab,False,3,1,[],"[[8, 4, 3, 4, 7], [2, 7, 4, 3, 5], [3, 4, 4, 6, 0]]","[[1, 1, 1, 1, 1], [3, 3, 3, 3, 3], [3, 3, 3, 3, 3]]","[2, 7, 21]",2,22,7,4,0.016,0.016,0.0,[],0,5,3,1472,0,49,49,none,False,0,traffic-light-mouselab,11,239114,7,0,0,0,3
traffic-light-mouselab,False,3,1,[],"[[5, 5, 6, 8, 4], [7, 3, 8, 6, 3], [5, 6, 8, 5, 6]]","[[3, 3, 3, 3, 3], [3, 3, 3, 3, 3], [3, 3, 3, 3, 3]]","[13, 16, 1]",13,18,8,3,0.068,0.068,0.0,[],0,5,3,979,0,205,205,none,True,0,traffic-light-mouselab,12,241358,8,1,0,0,3
traffic-light-mouselab,False,3,1,[],"[[5, 6, 4, 4, 6], [9, 5, 3, 9, 5], [3, 6, 6, 7, 7]]","[[3, 3, 3, 3, 3], [3, 3, 3, 3, 3], [3, 3, 3, 3, 3]]","[2, 24, 4]",4,28,9,3,0.084,0.084,0.0,[],0,5,3,1238,0,252,252,none,True,2,traffic-light-mouselab,13,244252,7,1,0,0,3
traffic-light-mouselab,False,3,1,[],"[[9, 4, 2, 7, 7], [3, 3, 5, 7, 1], [4, 5, 2, 4, 8]]","[[1, 1, 1, 1, 1], [3, 3, 3, 3, 3], [3, 3, 3, 3, 3]]","[18, 10, 2]",18,16,10,3,0.068,0.068,0.0,[],0,5,3,1214,0,204,204,none,False,0,traffic-light-mouselab,14,247152,7,0,0,0,3
traffic-light-mouselab,False,3,1,[],"[[7, 5, 7, 6, 7], [8, 4, 6, 5, 5], [8, 6, 6, 8, 10]]","[[3, 3, 3, 3, 3], [3, 3, 3, 3, 3], [3, 3, 3, 3, 3]]","[11, 6, 13]",11,8,11,3,0.067,0.067,0.0,[],0,5,3,7288,0,200,200,none,True,0,traffic-light-mouselab,15,256102,6,0,0,0,3
traffic-light-mouselab,False,3,1,[],"[[8, 2, 4, 6, 6], [7, 1, 7, 3, 3], [6, 3, 6, 7, 3]]","[[3, 3, 3, 3, 3], [3, 3, 3, 3, 3], [1, 1, 1, 1, 1]]","[8, 13, 9]",9,6,12,2,0.059,0.059,0.0,[],0,5,3,1377,0,177,177,none,False,2,traffic-light-mouselab,16,258988,6,0,0,0,3
traffic-light-mouselab,False,3,1,[],"[[4, 6, 5, 9, 8], [6, 5, 6, 3, 1], [5, 4, 5, 5, 7]]","[[3, 3, 3, 3, 3], [3, 3, 3, 3, 3], [1, 1, 1, 1, 1]]","[2, 10, 18]",18,16,13,1,0.045,0.045,0.0,[],0,5,3,1448,0,134,134,none,False,2,traffic-light-mouselab,17,261811,4,0,0,0,3
traffic-light-mouselab,False,3,1,[],"[[6, 4, 2, 3, 6], [6, 3, 4, 4, 8], [3, 4, 4, 1, 4]]","[[3, 3, 3, 3, 3], [3, 3, 3, 3, 3], [1, 1, 1, 1, 1]]","[2, 6, 22]",22,24,14,3,0.017,0.017,0.0,[],0,5,3,705,0,52,52,none,False,2,traffic-light-mouselab,18,264140,1,0,0,0,3
traffic-light-mouselab,False,3,1,[],"[[4, 5, 6, 5, 4], [4, 4, 7, 7, 6], [6, 9, 8, 7, 7]]","[[3, 3, 3, 3, 3], [1, 1, 1, 1, 1], [3, 3, 3, 3, 3]]","[5, 17, 8]",17,14,15,2,0.071,0.071,0.0,[],0,5,3,918,0,213,213,none,False,1,traffic-light-mouselab,19,266418,7,1,0,0,3
traffic-light-mouselab,False,3,1,[],"[[6, 5, 6, 6, 5], [8, 7, 4, 6, 6], [7, 3, 6, 4, 7]]","[[3, 3, 3, 3, 3], [3, 3, 3, 3, 3], [3, 3, 3, 3, 3]]","[13, 9, 8]",13,6,16,2,0.054,0.054,0.0,[],0,5,3,840,0,162,162,none,True,0,traffic-light-mouselab,20,268568,6,1,0,0,3
traffic-light-mouselab,False,3,1,[],"[[5, 6, 6, 6, 4], [5, 4, 3, 7, 5], [2, 5, 6, 5, 5]]","[[3, 3, 3, 3, 3], [3, 3, 3, 3, 3], [3, 3, 3, 3, 3]]","[16, 8, 6]",8,12,17,2,0.052,0.052,0.0,[],0,5,3,841,0,156,156,none,True,1,traffic-light-mouselab,21,270744,3,0,0,0,3
traffic-light-mouselab,False,3,1,[],"[[5, 4, 5, 8, 4], [6, 8, 6, 10, 6], [8, 6, 3, 6, 3]]","[[3, 3, 3, 3, 3], [3, 3, 3, 3, 3], [3, 3, 3, 3, 3]]","[17, 8, 5]",5,14,18,2,0.049,0.049,0.0,[],0,5,3,870,0,148,148,none,True,2,traffic-light-mouselab,22,273200,3,0,0,0,3
traffic-light-mouselab,False,3,1,[],"[[7, 4, 4, 1, 3], [3, 6, 6, 2, 6], [5, 3, 2, 7, 5]]","[[3, 3, 3, 3, 3], [3, 3, 3, 3, 3], [3, 3, 3, 3, 3]]","[4, 19, 7]",4,18,19,1,0.05,0.05,0.0,[],0,5,3,972,0,151,151,none,True,0,traffic-light-mouselab,23,275538,4,0,0,0,3
traffic-light-mouselab,False,3,1,[],"[[5, 2, 4, 3, 5], [2, 1, 8, 3, 4], [6, 7, 4, 8, 7]]","[[3, 3, 3, 3, 3], [3, 3, 3, 3, 3], [3, 3, 3, 3, 3]]","[7, 18, 5]",7,16,20,0,0.034,0.034,0.0,[],0,5,3,1003,0,101,101,none,True,0,traffic-light-mouselab,24,278056,5,1,0,0,3
traffic-light-mouselab,False,3,1,[],"[[9, 3, 4, 6, 5], [5, 5, 2, 4, 5], [4, 6, 7, 5, 5]]","[[3, 3, 3, 3, 3], [3, 3, 3, 3, 3], [1, 1, 1, 1, 1]]","[17, 7, 6]",6,14,21,0,0.071,0.071,0.0,[],0,5,3,995,0,212,212,none,False,2,traffic-light-mouselab,25,280660,4,0,0,0,3
traffic-light-mouselab,False,3,1,[],"[[9, 5, 5, 3, 6], [4, 7, 4, 5, 1], [4, 1, 9, 6, 6]]","[[3, 3, 3, 3, 3], [1, 1, 1, 1, 1], [3, 3, 3, 3, 3]]","[21, 6, 3]",6,22,22,0,0.075,0.075,0.0,[],0,5,3,924,0,225,225,none,False,1,traffic-light-mouselab,26,283528,4,0,0,0,3
traffic-light-mouselab,False,3,1,[],"[[3, 4, 5, 4, 5], [4, 4, 8, 3, 3], [6, 1, 4, 5, 5]]","[[3, 3, 3, 3, 3], [3, 3, 3, 3, 3], [3, 3, 3, 3, 3]]","[19, 5, 6]",6,18,23,3,0.04,0.04,0.0,[],0,5,3,1174,0,121,121,none,True,2,traffic-light-mouselab,27,286046,5,0,0,0,3
traffic-light-mouselab,False,3,1,[],"[[5, 8, 6, 6, 6], [4, 5, 8, 5, 6], [6, 6, 7, 8, 7]]","[[3, 3, 3, 3, 3], [3, 3, 3, 3, 3], [3, 3, 3, 3, 3]]","[8, 10, 12]",12,4,24,4,0.064,0.064,0.0,[],0,5,3,869,0,192,192,none,True,2,traffic-light-mouselab,28,288440,7,0,0,0,3
traffic-light-mouselab,False,3,1,[],"[[4, 3, 6, 5, 5], [5, 6, 6, 4, 6], [5, 4, 6, 3, 5]]","[[3, 3, 3, 3, 3], [3, 3, 3, 3, 3], [3, 3, 3, 3, 3]]","[3, 21, 6]",21,22,25,4,0.057,0.057,0.0,[],0,5,3,939,0,171,171,none,True,1,traffic-light-mouselab,29,290926,6,1,0,0,3
traffic-light-mouselab,False,3,1,[],"[[4, 7, 4, 6, 4], [9, 7, 2, 6, 6], [7, 3, 6, 7, 4]]","[[3, 3, 3, 3, 3], [3, 3, 3, 3, 3], [3, 3, 3, 3, 3]]","[17, 4, 9]",4,14,26,4,0.043,0.043,0.0,[],0,5,3,918,0,128,128,none,True,1,traffic-light-mouselab,30,292952,6,0,0,0,3
traffic-light-mouselab,False,3,1,[],"[[6, 3, 8, 2, 3], [3, 3, 4, 7, 4], [6, 3, 3, 5, 5]]","[[3, 3, 3, 3, 3], [3, 3, 3, 3, 3], [3, 3, 3, 3, 3]]","[22, 5, 3]",3,24,27,3,0.031,0.031,0.0,[],0,5,3,1011,0,94,94,none,True,2,traffic-light-mouselab,31,295004,5,0,0,0,3
traffic-light-mouselab,False,3,1,[],"[[3, 4, 3, 7, 7], [8, 5, 5, 4, 2], [3, 2, 3, 5, 5]]","[[3, 3, 3, 3, 3], [1, 1, 1, 1, 1], [3, 3, 3, 3, 3]]","[6, 3, 21]",3,22,28,3,0.053,0.053,0.0,[],0,5,3,770,0,159,159,none,False,1,traffic-light-mouselab,32,296844,4,0,0,0,3
traffic-light-mouselab,False,3,1,[],"[[2, 8, 5, 6, 2], [7, 8, 6, 6, 3], [5, 3, 10, 6, 6]]","[[3, 3, 3, 3, 3], [1, 1, 1, 1, 1], [3, 3, 3, 3, 3]]","[11, 10, 9]",10,2,29,3,0.06,0.06,0.0,[],0,5,3,754,0,180,180,none,False,1,traffic-light-mouselab,33,298698,6,0,0,0,3
traffic-light-mouselab,False,3,1,[],"[[6, 9, 4, 4, 8], [5, 5, 4, 5, 4], [1, 4, 4, 6, 6]]","[[1, 1, 1, 1, 1], [3, 3, 3, 3, 3], [3, 3, 3, 3, 3]]","[2, 14, 14]",2,16,30,4,0.052,0.052,0.0,[],0,5,3,793,0,156,156,none,False,0,traffic-light-mouselab,34,300522,8,0,0,0,3
traffic-light-mouselab,False,3,1,[],"[[6, 4, 2, 7, 8], [5, 4, 4, 4, 5], [5, 3, 7, 4, 4]]","[[3, 3, 3, 3, 3], [1, 1, 1, 1, 1], [3, 3, 3, 3, 3]]","[6, 13, 11]",13,8,31,2,0.047,0.047,0.0,[],0,5,3,769,0,141,141,none,False,1,traffic-light-mouselab,35,302518,4,0,0,0,3
traffic-light-mouselab,False,3,1,[],"[[6, 2, 4, 6, 5], [5, 6, 7, 4, 6], [4, 6, 5, 4, 5]]","[[1, 1, 1, 1, 1], [3, 3, 3, 3, 3], [3, 3, 3, 3, 3]]","[1, 16, 13]",1,18,32,3,0.041,0.041,0.0,[],0,5,3,823,0,122,122,none,False,0,traffic-light-mouselab,36,304678,6,1,0,0,3
traffic-light-mouselab,True,3,1,"[2, 10, 5, 6, 8, 9, 4, 1, 7, 1, 1]","[[5, 6, 7, 8, 8], [5, 4, 0, 4, 4], [5, 5, 3, 5, 4]]","[[3, 0, 2, 3, 2], [0, 0, 0, 0, 0], [2, 3, 3, 3, 3]]","[14, 4, 12]",4,12,1,1,0.053,0.04933333333333333,0.0036666666666666666,"[5, 6, 8, 9, 7, 1]",6,5,3,65036,11,160,149,none,False,1,traffic-light-mouselab,4,228584,4,0,5,5,4
traffic-light-mouselab,True,3,1,"[0, 10, 10, 10, 12, 12, 12, 14, 14, 14]","[[2, 4, 4, 3, 8], [4, 9, 5, 6, 4], [5, 4, 5, 2, 4]]","[[2, 3, 3, 3, 3], [3, 3, 3, 3, 3], [0, 3, 0, 3, 0]]","[6, 1, 23]",23,26,2,2,0.048,0.04466666666666667,0.0033333333333333335,"[10, 12, 14]",3,5,3,17298,10,144,134,none,True,2,traffic-light-mouselab,5,249638,5,1,9,3,4
traffic-light-mouselab,False,3,1,"[7, 7, 7, 5, 5, 5, 13, 14, 8, 8, 8]","[[4, 5, 6, 5, 6], [5, 4, 6, 2, 6], [1, 5, 5, 7, 3]]","[[3, 3, 3, 3, 3], [0, 3, 0, 0, 3], [1, 1, 1, 0, 0]]","[8, 20, 2]",2,20,3,2,0.059,0.05533333333333333,0.0036666666666666666,"[7, 5, 13, 14, 8]",5,5,3,17935,11,178,167,none,False,2,traffic-light-mouselab,7,274743,5,0,2,2,4
traffic-light-mouselab,False,3,1,"[0, 1, 2, 3, 4, 6, 6, 6]","[[4, 8, 8, 7, 7], [2, 7, 6, 6, 3], [1, 5, 8, 4, 5]]","[[0, 0, 0, 0, 0], [3, 0, 3, 3, 3], [3, 3, 3, 3, 3]]","[18, 7, 5]",18,16,4,1,0.073,0.07033333333333333,0.0026666666666666666,"[0, 1, 2, 3, 4, 6]",6,5,3,10461,8,218,210,none,False,0,traffic-light-mouselab,8,289077,8,1,5,5,4
traffic-light-mouselab,False,3,1,"[5, 6, 7, 8, 9]","[[6, 8, 5, 2, 5], [4, 5, 1, 0, 6], [7, 7, 8, 5, 5]]","[[3, 3, 3, 3, 3], [0, 0, 0, 0, 0], [3, 3, 3, 3, 3]]","[5, 12, 13]",12,10,5,4,0.054,0.052333333333333336,0.0016666666666666668,"[5, 6, 7, 8, 9]",5,5,3,5560,5,162,157,none,False,1,traffic-light-mouselab,9,298339,6,1,5,5,4
traffic-light-mouselab,False,3,1,"[7, 7, 7, 0, 0, 0, 4, 4, 4]","[[5, 5, 7, 2, 6], [3, 2, 3, 6, 5], [4, 4, 3, 6, 4]]","[[0, 3, 3, 3, 0], [3, 3, 0, 3, 3], [3, 3, 3, 3, 3]]","[17, 12, 1]",12,18,6,1,0.038,0.034999999999999996,0.003,"[7, 0, 4]",3,5,3,9646,9,113,104,none,True,1,traffic-light-mouselab,10,310639,2,0,3,1,4
traffic-light-mouselab,False,3,1,"[5, 1, 6, 7, 8, 9]","[[7, 8, 4, 6, 1], [9, 4, 3, 6, 5], [3, 2, 6, 6, 6]]","[[3, 2, 3, 3, 3], [0, 0, 0, 0, 0], [3, 3, 3, 3, 3]]","[4, 18, 8]",18,16,7,0,0.071,0.06899999999999999,0.002,"[5, 6, 7, 8, 9]",5,5,3,5585,6,214,208,none,False,1,traffic-light-mouselab,11,319819,9,1,5,5,4
traffic-light-mouselab,False,3,1,[],"[[4, 2, 6, 4, 5], [5, 3, 6, 7, 3], [7, 6, 3, 5, 5]]","[[3, 3, 3, 3, 3], [3, 3, 3, 3, 3], [3, 3, 3, 3, 3]]","[6, 11, 13]",11,8,8,2,0.047,0.047,0.0,[],0,5,3,2325,0,141,141,none,True,1,traffic-light-mouselab,12,324532,6,0,0,0,4
traffic-light-mouselab,False,3,1,"[5, 5, 5, 7, 7, 7, 9, 9, 9]","[[5, 7, 3, 5, 5], [5, 6, 2, 5, 4], [2, 5, 7, 3, 4]]","[[3, 3, 3, 3, 3], [0, 3, 0, 3, 0], [3, 3, 3, 3, 3]]","[6, 20, 4]",20,20,9,0,0.046,0.043,0.003,"[5, 7, 9]",3,5,3,7660,9,138,129,none,True,1,traffic-light-mouselab,13,335143,5,0,9,3,4
traffic-light-mouselab,False,3,1,"[5, 6, 7, 8, 9]","[[5, 3, 1, 6, 5], [1, 5, 5, 4, 4], [3, 4, 4, 3, 1]]","[[3, 3, 3, 3, 3], [0, 0, 0, 0, 0], [3, 3, 3, 3, 3]]","[18, 10, 2]",10,16,10,2,0.025,0.023333333333333334,0.0016666666666666668,"[5, 6, 7, 8, 9]",5,5,3,5702,5,76,71,none,False,1,traffic-light-mouselab,14,343359,5,1,5,5,4
traffic-light-mouselab,False,3,1,"[10, 10, 10]","[[4, 5, 6, 2, 6], [6, 6, 4, 5, 4], [7, 8, 6, 6, 7]]","[[3, 3, 3, 3, 3], [3, 3, 3, 3, 3], [0, 3, 3, 3, 3]]","[1, 8, 21]",1,22,11,0,0.066,0.065,0.001,[10],1,5,3,3599,3,199,196,none,True,0,traffic-light-mouselab,15,349553,4,0,0,0,4
traffic-light-mouselab,False,3,1,"[12, 12, 12, 14, 14, 14]","[[7, 5, 6, 6, 6], [3, 3, 6, 2, 7], [6, 5, 5, 5, 7]]","[[3, 3, 3, 3, 3], [3, 3, 3, 3, 3], [3, 3, 0, 3, 0]]","[7, 3, 20]",20,20,12,4,0.068,0.066,0.002,"[12, 14]",2,5,3,6652,6,203,197,none,True,2,traffic-light-mouselab,16,359418,7,1,6,2,4
traffic-light-mouselab,False,3,1,"[11, 11, 11, 13, 13, 13, 12, 12, 12]","[[8, 2, 4, 8, 6], [3, 5, 4, 4, 8], [6, 3, 2, 2, 5]]","[[3, 3, 3, 3, 3], [3, 3, 3, 3, 3], [3, 0, 0, 0, 3]]","[10, 1, 19]",10,18,13,0,0.066,0.063,0.003,"[11, 13, 12]",3,5,3,9852,9,197,188,none,True,0,traffic-light-mouselab,17,371102,8,1,0,0,4
traffic-light-mouselab,False,3,1,"[10, 11, 12, 13, 14]","[[9, 5, 5, 6, 7], [4, 4, 5, 4, 4], [4, 4, 6, 4, 3]]","[[3, 3, 3, 3, 3], [3, 3, 3, 3, 3], [0, 0, 0, 0, 0]]","[1, 17, 12]",12,18,14,2,0.054,0.052333333333333336,0.0016666666666666668,"[10, 11, 12, 13, 14]",5,5,3,4356,5,162,157,none,False,2,traffic-light-mouselab,18,377937,6,1,5,5,4
traffic-light-mouselab,False,3,1,"[6, 6, 6, 7, 7, 7, 9, 9, 9, 11]","[[6, 4, 5, 5, 5], [8, 5, 4, 6, 5], [4, 5, 4, 4, 3]]","[[3, 3, 3, 3, 3], [3, 0, 0, 3, 0], [1, 0, 1, 1, 1]]","[11, 17, 2]",2,16,15,1,0.046,0.042666666666666665,0.0033333333333333335,"[6, 7, 9, 11]",4,5,3,10611,10,139,129,none,False,2,traffic-light-mouselab,19,392982,5,1,1,1,4
traffic-light-mouselab,False,3,1,"[6, 6, 6, 8, 8, 8, 7, 7, 7]","[[7, 2, 6, 5, 5], [5, 4, 6, 5, 5], [5, 2, 5, 6, 6]]","[[1, 1, 1, 1, 1], [3, 0, 0, 0, 3], [3, 3, 3, 3, 3]]","[5, 23, 2]",5,26,16,2,0.059,0.055999999999999994,0.003,"[6, 8, 7]",3,5,3,5556,9,178,169,none,False,0,traffic-light-mouselab,20,400685,6,0,0,0,4
traffic-light-mouselab,False,3,1,"[5, 5, 5, 9, 9, 9, 7, 7, 7, 6, 6, 6, 8, 8, 8]","[[6, 3, 4, 5, 5], [5, 5, 4, 2, 4], [7, 6, 9, 6, 3]]","[[3, 3, 3, 3, 3], [0, 0, 0, 0, 0], [3, 3, 3, 3, 3]]","[2, 19, 9]",2,18,17,1,0.052,0.047,0.005,"[5, 9, 7, 6, 8]",5,5,3,13004,15,155,140,none,True,0,traffic-light-mouselab,21,415483,3,0,0,0,4
traffic-light-mouselab,False,3,1,"[5, 5, 5, 7, 7, 7]","[[5, 3, 4, 4, 7], [4, 5, 7, 5, 4], [5, 4, 5, 7, 2]]","[[3, 3, 3, 3, 3], [0, 3, 0, 3, 3], [3, 3, 3, 3, 3]]","[7, 19, 4]",4,18,18,2,0.06,0.057999999999999996,0.002,"[5, 7]",2,5,3,4412,6,181,175,none,True,2,traffic-light-mouselab,22,421444,5,0,0,0,4
traffic-light-mouselab,False,3,1,"[6, 6, 6, 8, 8, 8, 7, 7, 7]","[[5, 5, 6, 4, 5], [4, 4, 7, 4, 5], [2, 4, 8, 6, 9]]","[[3, 3, 3, 3, 3], [3, 0, 0, 0, 3], [3, 3, 3, 3, 3]]","[4, 16, 10]",16,12,19,2,0.072,0.06899999999999999,0.003,"[6, 8, 7]",3,5,3,7370,9,216,207,none,True,1,traffic-light-mouselab,23,430966,7,1,9,3,4
traffic-light-mouselab,False,3,1,"[5, 6, 7, 8, 9]","[[5, 4, 4, 5, 7], [4, 4, 2, 6, 4], [5, 4, 4, 8, 6]]","[[3, 3, 3, 3, 3], [0, 0, 0, 0, 0], [3, 3, 3, 3, 3]]","[12, 6, 12]",6,8,20,3,0.064,0.06233333333333334,0.0016666666666666668,"[5, 6, 7, 8, 9]",5,5,3,5518,5,192,187,none,False,1,traffic-light-mouselab,24,439188,6,1,5,5,4
traffic-light-mouselab,False,3,1,"[5, 5, 5]","[[6, 4, 6, 4, 4], [7, 4, 5, 5, 6], [4, 3, 8, 5, 6]]","[[3, 3, 3, 3, 3], [0, 3, 3, 3, 3], [3, 3, 3, 3, 3]]","[3, 26, 1]",3,32,21,0,0.068,0.067,0.001,[5],1,5,3,3518,3,204,201,none,True,0,traffic-light-mouselab,25,446549,6,1,0,0,4
traffic-light-mouselab,False,3,1,"[2, 2, 2]","[[4, 5, 6, 0, 7], [4, 6, 2, 5, 8], [4, 6, 6, 5, 5]]","[[3, 3, 0, 3, 3], [3, 3, 3, 3, 3], [3, 3, 3, 3, 3]]","[14, 3, 13]",3,14,22,2,0.056,0.055,0.001,[2],1,5,3,2952,3,168,165,none,True,1,traffic-light-mouselab,26,451112,2,0,0,0,4
traffic-light-mouselab,False,3,1,"[10, 11, 12, 13, 14, 3, 3, 3, 1, 1, 1]","[[2, 1, 5, 6, 7], [4, 6, 4, 6, 4], [4, 7, 6, 7, 6]]","[[3, 0, 3, 0, 3], [3, 3, 3, 3, 3], [0, 0, 0, 0, 0]]","[15, 2, 13]",13,16,23,3,0.064,0.060333333333333336,0.0036666666666666666,"[10, 11, 12, 13, 14, 3, 1]",7,5,3,8395,11,193,182,none,False,2,traffic-light-mouselab,27,461068,7,1,5,5,4
traffic-light-mouselab,False,3,1,"[0, 1, 2, 3, 4, 10, 10, 10]","[[6, 4, 6, 3, 6], [8, 5, 2, 6, 3], [8, 5, 4, 1, 2]]","[[0, 0, 0, 0, 0], [3, 3, 3, 3, 3], [0, 3, 3, 3, 3]]","[14, 1, 15]",14,18,24,0,0.071,0.06833333333333333,0.0026666666666666666,"[0, 1, 2, 3, 4, 10]",6,5,3,9186,8,212,204,none,False,0,traffic-light-mouselab,28,472465,6,1,5,5,4
traffic-light-mouselab,False,3,1,"[0, 0, 0, 2, 2, 2]","[[5, 3, 6, 3, 7], [8, 4, 5, 4, 8], [5, 4, 8, 5, 3]]","[[0, 3, 0, 3, 3], [3, 3, 3, 3, 3], [3, 3, 3, 3, 3]]","[21, 7, 2]",21,22,25,2,0.059,0.056999999999999995,0.002,"[0, 2]",2,5,3,6019,6,177,171,none,True,0,traffic-light-mouselab,29,480471,6,0,6,2,4
traffic-light-mouselab,False,3,1,"[12, 12, 12, 13, 13, 13, 10, 10, 10]","[[4, 5, 4, 7, 2], [6, 6, 8, 8, 4], [6, 6, 5, 4, 3]]","[[3, 3, 3, 3, 3], [3, 3, 3, 3, 3], [0, 3, 0, 0, 3]]","[4, 12, 14]",4,12,26,0,0.057,0.054,0.003,"[12, 13, 10]",3,5,3,8419,9,172,163,none,True,0,traffic-light-mouselab,30,489667,4,0,0,0,4
traffic-light-mouselab,False,3,1,"[10, 11, 12, 13, 14]","[[6, 5, 4, 8, 7], [4, 3, 8, 5, 3], [6, 4, 3, 6, 8]]","[[3, 3, 3, 3, 3], [3, 3, 3, 3, 3], [0, 0, 0, 0, 0]]","[12, 13, 5]",5,10,27,4,0.054,0.052333333333333336,0.0016666666666666668,"[10, 11, 12, 13, 14]",5,5,3,4093,5,163,158,none,False,2,traffic-light-mouselab,31,495830,8,1,5,5,4
traffic-light-mouselab,False,3,1,"[5, 7, 8, 9, 6]","[[6, 2, 9, 5, 5], [4, 9, 6, 3, 6], [7, 4, 3, 7, 3]]","[[3, 3, 3, 3, 3], [0, 0, 0, 0, 0], [3, 3, 3, 3, 3]]","[2, 17, 11]",17,16,28,1,0.067,0.06533333333333334,0.0016666666666666668,"[5, 7, 8, 9, 6]",5,5,3,7019,5,201,196,none,False,1,traffic-light-mouselab,32,503926,9,1,5,5,4
traffic-light-mouselab,False,3,1,[],"[[4, 5, 5, 7, 6], [4, 3, 2, 8, 6], [8, 5, 6, 5, 6]]","[[3, 3, 3, 3, 3], [3, 3, 3, 3, 3], [3, 3, 3, 3, 3]]","[13, 9, 8]",13,6,29,3,0.068,0.068,0.0,[],0,5,3,3567,0,203,203,none,True,0,traffic-light-mouselab,33,510508,7,1,0,0,4
traffic-light-mouselab,False,3,1,[],"[[5, 6, 7, 6, 9], [2, 7, 5, 6, 4], [5, 5, 5, 4, 8]]","[[3, 3, 3, 3, 3], [3, 3, 3, 3, 3], [3, 3, 3, 3, 3]]","[25, 3, 2]",2,30,30,0,0.047,0.047,0.0,[],0,5,3,2780,0,141,141,none,True,2,traffic-light-mouselab,34,515009,5,0,0,0,4
traffic-light-mouselab,False,3,1,"[10, 11, 12, 13, 14]","[[6, 6, 3, 4, 3], [5, 5, 7, 5, 2], [5, 6, 9, 4, 5]]","[[3, 3, 3, 3, 3], [3, 3, 3, 3, 3], [0, 0, 0, 0, 0]]","[1, 7, 22]",22,24,31,2,0.083,0.08133333333333334,0.0016666666666666668,"[10, 11, 12, 13, 14]",5,5,3,3374,5,250,245,none,False,2,traffic-light-mouselab,35,520094,9,1,5,5,4
traffic-light-mouselab,False,3,1,"[10, 11, 12, 13, 14]","[[0, 8, 6, 5, 5], [7, 4, 6, 7, 2], [6, 5, 4, 7, 3]]","[[3, 3, 3, 3, 3], [3, 3, 3, 3, 3], [0, 0, 0, 0, 0]]","[5, 15, 10]",10,10,32,3,0.067,0.06533333333333334,0.0016666666666666668,"[10, 11, 12, 13, 14]",5,5,3,3666,5,200,195,none,False,2,traffic-light-mouselab,36,524630,7,1,5,5,4
traffic-light-mouselab,True,3,1,"[10, 1, 1, 1, 13, 14, 3, 3, 3, 5, 5, 5]","[[7, 6, 6, 5, 6], [7, 4, 3, 5, 6], [5, 4, 5, 7, 5]]","[[3, 0, 3, 0, 3], [0, 3, 3, 3, 3], [0, 1, 1, 0, 0]]","[10, 15, 5]",5,10,1,2,0.043,0.03899999999999999,0.004,"[10, 1, 13, 14, 3, 5]",6,5,3,19572,12,130,118,none,False,2,traffic-light-mouselab,4,380182,5,0,3,3,5
traffic-light-mouselab,True,3,1,[],"[[5, 5, 6, 3, 2], [5, 7, 6, 3, 4], [5, 2, 6, 3, 1]]","[[3, 3, 3, 3, 3], [3, 3, 3, 3, 3], [3, 3, 3, 3, 3]]","[8, 4, 18]",4,16,2,0,0.05,0.05,0.0,[],0,5,3,3121,0,150,150,none,True,1,traffic-light-mouselab,5,392031,5,0,0,0,5
traffic-light-mouselab,False,3,1,"[0, 0, 0, 1, 1, 1, 2, 2, 2, 3, 3, 3, 4, 4, 4, 9, 9, 9, 14, 13, 12, 11, 10, 5, 5, 5, 6, 6, 6, 7, 7, 7, 8, 8, 8]","[[3, 6, 3, 5, 3], [3, 3, 5, 2, 3], [8, 5, 6, 6, 7]]","[[0, 0, 0, 0, 0], [0, 0, 0, 0, 0], [0, 0, 0, 0, 0]]","[19, 3, 8]",8,18,3,2,0.04,0.028333333333333335,0.011666666666666667,"[0, 1, 2, 3, 4, 9, 14, 13, 12, 11, 10, 5, 6, 7, 8]",15,5,3,30413,35,120,85,none,False,2,traffic-light-mouselab,7,443522,6,0,5,5,5
traffic-light-mouselab,False,3,1,"[5, 5, 5, 6, 6, 6, 7, 7, 7, 8, 8, 8, 9, 9, 9]","[[6, 7, 6, 5, 4], [6, 5, 6, 5, 2], [5, 7, 4, 4, 3]]","[[1, 1, 1, 1, 1], [0, 0, 0, 0, 0], [3, 3, 3, 3, 3]]","[2, 24, 4]",2,28,4,2,0.057,0.052000000000000005,0.005,"[5, 6, 7, 8, 9]",5,5,3,17748,15,172,157,none,False,0,traffic-light-mouselab,8,472938,6,0,0,0,5
traffic-light-mouselab,False,3,1,"[10, 10, 10, 11, 11, 11, 12, 12, 12, 13, 13, 13, 14, 14, 14]","[[5, 2, 4, 3, 7], [4, 5, 6, 3, 5], [9, 8, 7, 2, 3]]","[[3, 3, 3, 3, 3], [3, 3, 3, 3, 3], [0, 0, 0, 0, 0]]","[8, 10, 12]",8,4,5,0,0.063,0.058,0.005,"[10, 11, 12, 13, 14]",5,5,3,8724,15,188,173,none,True,0,traffic-light-mouselab,9,630861,5,0,0,0,5
traffic-light-mouselab,False,3,1,"[5, 5, 5, 6, 6, 6, 7, 7, 7, 8, 8, 8, 9, 9, 9]","[[6, 5, 6, 3, 5], [6, 5, 4, 6, 1], [6, 4, 6, 7, 5]]","[[1, 1, 1, 1, 1], [0, 0, 0, 0, 0], [3, 3, 3, 3, 3]]","[9, 15, 6]",9,10,6,3,0.053,0.048,0.005,"[5, 6, 7, 8, 9]",5,5,3,7780,15,159,144,none,False,0,traffic-light-mouselab,10,642553,3,0,0,0,5
traffic-light-mouselab,False,3,1,"[0, 1, 2, 3, 4]","[[7, 6, 2, 4, 6], [6, 7, 5, 4, 1], [3, 9, 6, 2, 7]]","[[0, 0, 0, 0, 0], [3, 3, 3, 3, 3], [3, 3, 3, 3, 3]]","[14, 10, 6]",14,8,7,0,0.059,0.05733333333333333,0.0016666666666666668,"[0, 1, 2, 3, 4]",5,5,3,7651,5,176,171,none,False,0,traffic-light-mouselab,11,653769,7,1,5,5,5
traffic-light-mouselab,False,3,1,"[10, 10, 10, 11, 11, 11, 12, 12, 12, 13, 13, 13, 14, 14, 14]","[[7, 7, 5, 5, 6], [3, 5, 6, 5, 5], [5, 6, 5, 2, 4]]","[[3, 3, 3, 3, 3], [3, 3, 3, 3, 3], [0, 0, 0, 0, 0]]","[12, 5, 13]",12,10,8,1,0.062,0.057,0.005,"[10, 11, 12, 13, 14]",5,5,3,8051,15,187,172,none,True,0,traffic-light-mouselab,12,667385,7,1,0,0,5
traffic-light-mouselab,False,3,1,"[0, 0, 0, 1, 1, 1, 2, 2, 2, 3, 3, 3, 4, 4, 4]","[[7, 4, 4, 6, 4], [7, 3, 7, 3, 3], [5, 1, 4, 5, 2]]","[[0, 0, 0, 0, 0], [3, 3, 3, 3, 3], [3, 3, 3, 3, 3]]","[11, 16, 3]",3,14,9,3,0.043,0.038,0.005,"[0, 1, 2, 3, 4]",5,5,3,7974,15,129,114,none,True,2,traffic-light-mouselab,13,682304,5,1,0,0,5
traffic-light-mouselab,False,3,1,"[10, 10, 10, 11, 11, 11, 12, 12, 12, 13, 13, 13, 14, 14, 14]","[[6, 5, 8, 2, 4], [5, 4, 4, 7, 5], [4, 5, 1, 0, 4]]","[[3, 3, 3, 3, 3], [1, 1, 1, 1, 1], [0, 0, 0, 0, 0]]","[2, 10, 18]",10,16,10,1,0.047,0.042,0.005,"[10, 11, 12, 13, 14]",5,5,3,7377,15,140,125,none,False,1,traffic-light-mouselab,14,693753,4,0,0,0,5
traffic-light-mouselab,False,3,1,"[10, 10, 10, 11, 11, 11, 12, 12, 12, 13, 13, 13, 14, 14, 14]","[[7, 3, 1, 6, 5], [4, 3, 6, 4, 4], [4, 5, 4, 5, 3]]","[[3, 3, 3, 3, 3], [3, 3, 3, 3, 3], [0, 0, 0, 0, 0]]","[3, 8, 19]",8,18,11,1,0.043,0.038,0.005,"[10, 11, 12, 13, 14]",5,5,3,8383,15,128,113,none,True,1,traffic-light-mouselab,15,711196,3,0,0,0,5
traffic-light-mouselab,False,3,1,"[5, 5, 5, 6, 6, 6, 7, 7, 7, 8, 8, 8, 9, 9, 9]","[[1, 6, 3, 7, 3], [7, 7, 5, 6, 7], [4, 6, 7, 4, 6]]","[[1, 1, 1, 1, 1], [0, 0, 0, 0, 0], [3, 3, 3, 3, 3]]","[3, 18, 9]",3,16,12,4,0.063,0.058,0.005,"[5, 6, 7, 8, 9]",5,5,3,8200,15,189,174,none,False,0,traffic-light-mouselab,16,723842,3,0,0,0,5
traffic-light-mouselab,False,3,1,"[10, 10, 10, 11, 11, 11, 12, 12, 12, 13, 13, 13, 14, 14, 14]","[[3, 6, 7, 6, 6], [6, 4, 6, 5, 3], [3, 9, 6, 5, 10]]","[[1, 1, 1, 1, 1], [3, 3, 3, 3, 3], [0, 0, 0, 0, 0]]","[2, 2, 26]",2,32,13,4,0.093,0.088,0.005,"[10, 11, 12, 13, 14]",5,5,3,8769,15,278,263,none,False,0,traffic-light-mouselab,17,737615,6,0,0,0,5
traffic-light-mouselab,False,3,1,"[10, 10, 10, 11, 11, 11, 12, 12, 12, 13, 13, 13, 14, 14, 14]","[[5, 6, 4, 3, 3], [7, 4, 6, 7, 3], [5, 6, 1, 5, 3]]","[[3, 3, 3, 3, 3], [1, 1, 1, 1, 1], [0, 0, 0, 0, 0]]","[6, 9, 15]",9,10,14,1,0.054,0.049,0.005,"[10, 11, 12, 13, 14]",5,5,3,7096,15,162,147,none,False,1,traffic-light-mouselab,18,752790,4,0,0,0,5
traffic-light-mouselab,False,3,1,"[5, 5, 5, 6, 6, 6, 7, 7, 7, 8, 8, 8, 9, 9, 9]","[[7, 8, 6, 9, 3], [7, 4, 4, 5, 4], [5, 7, 7, 6, 7]]","[[3, 3, 3, 3, 3], [0, 0, 0, 0, 0], [3, 3, 3, 3, 3]]","[1, 18, 11]",11,18,15,0,0.063,0.058,0.005,"[5, 6, 7, 8, 9]",5,5,3,7224,15,188,173,none,True,2,traffic-light-mouselab,19,763267,5,0,0,0,5
traffic-light-mouselab,False,3,1,"[0, 0, 0, 1, 1, 1, 2, 2, 2, 3, 3, 3, 4, 4, 4]","[[5, 7, 4, 9, 6], [3, 6, 2, 6, 7], [3, 7, 6, 5, 7]]","[[0, 0, 0, 0, 0], [3, 3, 3, 3, 3], [3, 3, 3, 3, 3]]","[20, 1, 9]",9,20,16,3,0.077,0.072,0.005,"[0, 1, 2, 3, 4]",5,5,3,8815,15,231,216,none,True,2,traffic-light-mouselab,20,775965,5,0,0,0,5
traffic-light-mouselab,False,3,1,"[0, 0, 0, 1, 1, 1, 2, 2, 2, 3, 3, 3, 4, 4, 4]","[[7, 5, 6, 4, 2], [6, 3, 5, 7, 1], [7, 7, 5, 6, 1]]","[[0, 0, 0, 0, 0], [3, 3, 3, 3, 3], [3, 3, 3, 3, 3]]","[22, 6, 2]",22,24,17,0,0.068,0.063,0.005,"[0, 1, 2, 3, 4]",5,5,3,7054,15,204,189,none,True,0,traffic-light-mouselab,21,788043,7,1,15,5,5
traffic-light-mouselab,False,3,1,"[10, 11, 12, 13, 14, 9, 9, 9, 8, 8, 8, 7, 7, 7, 6, 6, 6, 5, 5, 5]","[[1, 3, 7, 2, 8], [2, 5, 6, 3, 5], [4, 6, 5, 4, 4]]","[[3, 3, 3, 3, 3], [0, 0, 0, 0, 0], [0, 0, 0, 0, 0]]","[5, 17, 8]",8,14,18,2,0.059,0.05233333333333333,0.006666666666666667,"[10, 11, 12, 13, 14, 9, 8, 7, 6, 5]",10,5,3,11975,20,177,157,none,False,2,traffic-light-mouselab,22,809087,5,0,5,5,5
traffic-light-mouselab,False,3,1,"[0, 0, 0, 1, 1, 1, 2, 2, 2, 3, 3, 3, 4, 4, 4]","[[4, 6, 2, 1, 3], [1, 5, 7, 6, 6], [5, 6, 7, 5, 8]]","[[0, 0, 0, 0, 0], [3, 3, 3, 3, 3], [3, 3, 3, 3, 3]]","[22, 3, 5]",22,24,19,1,0.059,0.054,0.005,"[0, 1, 2, 3, 4]",5,5,3,9620,15,177,162,none,True,0,traffic-light-mouselab,23,822102,6,1,15,5,5
traffic-light-mouselab,False,3,1,"[5, 6, 7, 8, 9, 0, 0, 0, 1, 1, 1, 2, 2, 2, 3, 3, 3, 4, 4, 4]","[[5, 5, 8, 4, 9], [6, 5, 3, 9, 3], [5, 4, 3, 5, 6]]","[[0, 0, 0, 0, 0], [0, 0, 0, 0, 0], [3, 3, 3, 3, 3]]","[18, 10, 2]",10,16,20,2,0.06,0.05333333333333333,0.006666666666666667,"[5, 6, 7, 8, 9, 0, 1, 2, 3, 4]",10,5,3,13702,20,180,160,none,False,1,traffic-light-mouselab,24,843543,3,0,5,5,5
traffic-light-mouselab,False,3,1,"[0, 0, 0, 1, 1, 1, 2, 2, 2, 3, 3, 3, 4, 4, 4]","[[2, 6, 5, 6, 7], [7, 4, 6, 2, 5], [3, 6, 4, 4, 4]]","[[0, 0, 0, 0, 0], [3, 3, 3, 3, 3], [3, 3, 3, 3, 3]]","[25, 1, 4]",4,30,21,4,0.065,0.060000000000000005,0.005,"[0, 1, 2, 3, 4]",5,5,3,8059,15,196,181,none,True,2,traffic-light-mouselab,25,856414,4,0,0,0,5
traffic-light-mouselab,False,3,1,"[0, 0, 0, 1, 1, 1, 2, 2, 2, 3, 3, 3, 4, 4, 4]","[[3, 4, 4, 4, 6], [2, 7, 4, 4, 2], [5, 4, 4, 5, 10]]","[[0, 0, 0, 0, 0], [3, 3, 3, 3, 3], [3, 3, 3, 3, 3]]","[23, 4, 3]",23,26,22,4,0.059,0.054,0.005,"[0, 1, 2, 3, 4]",5,5,3,7307,15,176,161,none,True,0,traffic-light-mouselab,26,866920,6,1,15,5,5
traffic-light-mouselab,False,3,1,"[10, 10, 10, 11, 11, 11, 12, 12, 12, 14, 14, 14, 13, 13, 13]","[[6, 2, 4, 5, 9], [4, 4, 5, 4, 6], [4, 6, 4, 6, 5]]","[[3, 3, 3, 3, 3], [3, 3, 3, 3, 3], [0, 0, 0, 0, 0]]","[1, 7, 22]",7,24,23,1,0.054,0.049,0.005,"[10, 11, 12, 14, 13]",5,5,3,8027,15,162,147,none,True,1,traffic-light-mouselab,27,879038,4,0,0,0,5
traffic-light-mouselab,False,3,1,"[10, 11, 12, 13, 14, 5, 5, 5, 6, 6, 6, 7, 7, 7, 8, 8, 8, 9, 9, 9]","[[5, 5, 2, 3, 6], [4, 5, 1, 4, 5], [4, 3, 6, 3, 5]]","[[3, 3, 3, 3, 3], [0, 0, 0, 0, 0], [0, 0, 0, 0, 0]]","[2, 25, 3]",3,30,24,1,0.048,0.04133333333333333,0.006666666666666667,"[10, 11, 12, 13, 14, 5, 6, 7, 8, 9]",10,5,3,11432,20,144,124,none,False,2,traffic-light-mouselab,28,897269,3,0,5,5,5
traffic-light-mouselab,False,3,1,"[5, 5, 5, 6, 6, 6, 7, 7, 7, 8, 8, 8, 9, 9, 9]","[[6, 1, 6, 7, 5], [5, 9, 4, 3, 4], [5, 5, 3, 4, 5]]","[[3, 3, 3, 3, 3], [0, 0, 0, 0, 0], [3, 3, 3, 3, 3]]","[6, 18, 6]",18,16,25,1,0.066,0.061000000000000006,0.005,"[5, 6, 7, 8, 9]",5,5,3,6250,15,198,183,none,True,1,traffic-light-mouselab,29,907636,9,1,15,5,5
traffic-light-mouselab,False,3,1,"[5, 5, 5, 6, 6, 6, 7, 7, 7, 8, 8, 8, 9, 9, 9]","[[6, 6, 4, 4, 7], [9, 8, 3, 7, 7], [10, 5, 4, 6, 3]]","[[3, 3, 3, 3, 3], [0, 0, 0, 0, 0], [3, 3, 3, 3, 3]]","[3, 25, 2]",25,30,26,0,0.088,0.08299999999999999,0.005,"[5, 6, 7, 8, 9]",5,5,3,7335,15,263,248,none,True,1,traffic-light-mouselab,30,920879,9,1,15,5,5
traffic-light-mouselab,False,3,1,"[5, 6, 7, 8, 9]","[[6, 3, 6, 7, 7], [7, 10, 3, 5, 6], [9, 4, 3, 6, 6]]","[[3, 3, 3, 3, 3], [0, 0, 0, 0, 0], [3, 3, 3, 3, 3]]","[4, 25, 1]",25,30,27,1,0.089,0.08733333333333333,0.0016666666666666668,"[5, 6, 7, 8, 9]",5,5,3,5975,5,266,261,none,False,1,traffic-light-mouselab,31,930222,10,1,5,5,5
traffic-light-mouselab,False,3,1,"[10, 10, 10, 11, 11, 11, 12, 12, 12, 13, 13, 13, 14, 14, 14]","[[3, 3, 2, 5, 9], [8, 7, 5, 5, 7], [6, 6, 5, 7, 6]]","[[3, 3, 3, 3, 3], [3, 3, 3, 3, 3], [0, 0, 0, 0, 0]]","[12, 2, 16]",2,16,28,3,0.061,0.056,0.005,"[10, 11, 12, 13, 14]",5,5,3,8704,15,182,167,none,True,1,traffic-light-mouselab,32,942035,5,0,0,0,5
traffic-light-mouselab,False,3,1,"[0, 0, 0, 5, 5, 5, 6, 6, 6, 1, 1, 1, 2, 2, 2, 7, 7, 7, 8, 8, 8, 3, 3, 3, 4, 4, 4, 9, 9, 9]","[[4, 5, 4, 8, 7], [3, 4, 7, 3, 3], [5, 6, 5, 4, 3]]","[[0, 0, 0, 0, 0], [0, 0, 0, 0, 0], [3, 3, 3, 3, 3]]","[13, 13, 4]",4,12,29,3,0.053,0.043,0.01,"[0, 5, 6, 1, 2, 7, 8, 3, 4, 9]",10,5,3,17767,30,159,129,none,True,2,traffic-light-mouselab,33,965090,4,0,0,0,5
traffic-light-mouselab,False,3,1,"[0, 0, 0, 1, 1, 1, 2, 2, 2, 3, 3, 3, 4, 4, 4]","[[5, 5, 7, 5, 4], [8, 5, 4, 5, 6], [8, 3, 6, 6, 4]]","[[0, 0, 0, 0, 0], [3, 3, 3, 3, 3], [1, 1, 1, 1, 1]]","[21, 6, 3]",3,22,30,2,0.063,0.058,0.005,"[0, 1, 2, 3, 4]",5,5,3,6750,15,189,174,none,False,2,traffic-light-mouselab,34,974147,6,0,0,0,5
traffic-light-mouselab,False,3,1,"[5, 6, 7, 8, 9]","[[3, 7, 7, 2, 10], [8, 3, 4, 4, 5], [7, 4, 2, 7, 7]]","[[3, 3, 3, 3, 3], [0, 0, 0, 0, 0], [3, 3, 3, 3, 3]]","[1, 26, 3]",26,32,31,0,0.077,0.07533333333333334,0.0016666666666666668,"[5, 6, 7, 8, 9]",5,5,3,5002,5,232,227,none,False,1,traffic-light-mouselab,35,983851,8,1,5,5,5
traffic-light-mouselab,False,3,1,"[0, 0, 0, 1, 1, 1, 2, 2, 2, 3, 3, 3, 4, 4, 4]","[[6, 5, 8, 9, 4], [9, 4, 5, 7, 5], [5, 6, 6, 7, 6]]","[[0, 0, 0, 0, 0], [3, 3, 3, 3, 3], [1, 1, 1, 1, 1]]","[23, 2, 5]",5,26,32,3,0.085,0.08,0.005,"[0, 1, 2, 3, 4]",5,5,3,7923,15,256,241,none,False,2,traffic-light-mouselab,36,996188,7,1,0,0,5
traffic-light-mouselab,True,3,1,"[6, 6, 6, 7, 7, 7, 8, 8, 8]","[[5, 4, 6, 4, 6], [4, 2, 4, 2, 6], [6, 7, 3, 5, 4]]","[[1, 1, 1, 1, 1], [3, 0, 0, 0, 3], [3, 3, 3, 3, 3]]","[22, 3, 5]",22,24,1,2,0.053,0.049999999999999996,0.003,"[6, 7, 8]",3,5,3,17483,9,159,150,none,False,0,traffic-light-mouselab,4,322278,6,1,0,0,6
traffic-light-mouselab,True,3,1,"[10, 10, 10, 12, 12, 12]","[[3, 3, 4, 3, 5], [4, 4, 6, 8, 4], [0, 3, 4, 5, 7]]","[[3, 3, 3, 3, 3], [3, 3, 3, 3, 3], [0, 3, 0, 3, 3]]","[6, 2, 22]",22,24,2,2,0.041,0.039,0.002,"[10, 12]",2,5,3,10569,6,124,118,none,True,2,traffic-light-mouselab,5,335954,4,0,6,2,6
traffic-light-mouselab,False,3,1,"[5, 5, 5]","[[5, 6, 4, 7, 0], [6, 5, 4, 6, 5], [3, 8, 9, 7, 3]]","[[3, 3, 3, 3, 3], [0, 3, 3, 3, 3], [1, 1, 1, 1, 1]]","[4, 18, 8]",8,16,3,0,0.051,0.049999999999999996,0.001,[5],1,5,3,6666,3,152,149,none,False,2,traffic-light-mouselab,7,349724,3,0,0,0,6
traffic-light-mouselab,False,3,1,"[1, 1, 1, 2, 2, 2, 3, 3, 3]","[[3, 4, 5, 5, 1], [5, 5, 5, 3, 3], [6, 7, 2, 3, 7]]","[[3, 0, 0, 0, 3], [3, 3, 3, 3, 3], [3, 3, 3, 3, 3]]","[13, 12, 5]",5,10,4,2,0.045,0.041999999999999996,0.003,"[1, 2, 3]",3,5,3,7043,9,135,126,none,True,2,traffic-light-mouselab,8,361323,2,0,0,0,6
traffic-light-mouselab,False,3,1,"[4, 4, 4, 2, 2, 2]","[[7, 5, 8, 8, 3], [5, 2, 6, 4, 5], [6, 5, 0, 4, 5]]","[[3, 3, 0, 3, 0], [3, 3, 3, 3, 3], [1, 1, 1, 1, 1]]","[16, 3, 11]",11,14,5,2,0.049,0.047,0.002,"[4, 2]",2,5,3,6563,6,146,140,none,False,2,traffic-light-mouselab,9,369893,0,0,0,0,6
traffic-light-mouselab,False,3,1,"[7, 7, 7, 5, 5, 5, 9, 9, 9]","[[4, 4, 8, 4, 4], [4, 7, 4, 5, 2], [6, 7, 5, 4, 6]]","[[3, 3, 3, 3, 3], [0, 3, 0, 3, 0], [3, 3, 3, 3, 3]]","[3, 17, 10]",10,14,6,2,0.047,0.044,0.003,"[7, 5, 9]",3,5,3,6740,9,142,133,none,True,2,traffic-light-mouselab,10,379459,5,0,0,0,6
traffic-light-mouselab,False,3,1,"[2, 2, 2]","[[6, 4, 6, 2, 6], [6, 5, 4, 6, 4], [8, 7, 2, 9, 8]]","[[3, 3, 0, 3, 3], [1, 1, 1, 1, 1], [3, 3, 3, 3, 3]]","[24, 4, 2]",4,28,7,2,0.055,0.054,0.001,[2],1,5,3,4414,3,164,161,none,False,1,traffic-light-mouselab,11,385996,4,0,0,0,6
traffic-light-mouselab,False,3,1,"[5, 5, 5, 8, 8, 8, 7, 7, 7, 6, 6, 6, 9, 9, 9]","[[7, 4, 4, 7, 6], [4, 3, 3, 3, 6], [5, 4, 6, 6, 5]]","[[3, 3, 3, 3, 3], [0, 0, 0, 0, 0], [3, 3, 3, 3, 3]]","[4, 23, 3]",3,26,8,4,0.059,0.054,0.005,"[5, 8, 7, 6, 9]",5,5,3,8604,15,177,162,none,True,2,traffic-light-mouselab,12,396658,5,0,0,0,6
traffic-light-mouselab,False,3,1,"[0, 0, 0, 3, 3, 3, 8, 8, 8, 4, 4, 4]","[[3, 3, 6, 5, 10], [6, 3, 6, 4, 7], [5, 3, 7, 5, 4]]","[[0, 3, 3, 0, 0], [1, 1, 1, 0, 1], [3, 3, 3, 3, 3]]","[16, 7, 7]",7,12,9,4,0.079,0.07566666666666667,0.0033333333333333335,"[0, 3, 8, 4]",4,5,3,10880,10,237,227,none,False,1,traffic-light-mouselab,13,409467,7,1,3,1,6
traffic-light-mouselab,False,3,1,"[5, 5, 5, 8, 8, 8, 7, 7, 7, 6, 6, 6, 9, 9, 9]","[[5, 6, 2, 7, 6], [3, 3, 6, 2, 3], [1, 5, 3, 7, 5]]","[[3, 3, 3, 3, 3], [0, 0, 0, 0, 0], [3, 3, 3, 3, 3]]","[5, 22, 3]",5,24,10,2,0.05,0.045000000000000005,0.005,"[5, 8, 7, 6, 9]",5,5,3,9551,15,151,136,none,True,0,traffic-light-mouselab,14,420641,2,0,0,0,6
traffic-light-mouselab,False,3,1,"[10, 10, 10, 11, 11, 11]","[[6, 4, 5, 5, 4], [7, 5, 3, 5, 6], [5, 10, 1, 1, 8]]","[[3, 3, 3, 3, 3], [3, 3, 3, 3, 3], [0, 0, 3, 3, 3]]","[4, 3, 23]",3,26,11,1,0.087,0.08499999999999999,0.002,"[10, 11]",2,5,3,4916,6,261,255,none,True,1,traffic-light-mouselab,15,427402,5,0,0,0,6
traffic-light-mouselab,False,3,1,"[0, 0, 0, 3, 3, 3, 4, 4, 4, 1, 1, 1, 2, 2, 2]","[[5, 6, 7, 4, 5], [5, 3, 4, 3, 3], [6, 8, 5, 6, 1]]","[[0, 0, 0, 0, 0], [3, 3, 3, 3, 3], [3, 3, 3, 3, 3]]","[14, 7, 9]",14,8,12,2,0.057,0.052000000000000005,0.005,"[0, 3, 4, 1, 2]",5,5,3,8375,15,171,156,none,True,0,traffic-light-mouselab,16,438072,7,1,15,5,6
traffic-light-mouselab,False,3,1,"[0, 0, 0, 2, 2, 2, 3, 3, 3, 4, 4, 4, 1, 1, 1]","[[6, 4, 2, 5, 5], [6, 5, 7, 6, 7], [6, 7, 4, 4, 5]]","[[0, 0, 0, 0, 0], [3, 3, 3, 3, 3], [3, 3, 3, 3, 3]]","[15, 13, 2]",13,16,13,0,0.06,0.055,0.005,"[0, 2, 3, 4, 1]",5,5,3,8534,15,180,165,none,True,1,traffic-light-mouselab,17,448406,6,0,0,0,6
traffic-light-mouselab,False,3,1,"[5, 8, 7, 6, 9]","[[6, 5, 4, 6, 2], [5, 7, 4, 4, 8], [7, 4, 6, 6, 6]]","[[3, 3, 3, 3, 3], [0, 0, 0, 0, 0], [3, 3, 3, 3, 3]]","[1, 24, 5]",24,28,14,4,0.075,0.07333333333333333,0.0016666666666666668,"[5, 8, 7, 6, 9]",5,5,3,7268,5,224,219,none,False,1,traffic-light-mouselab,18,457762,8,1,5,5,6
traffic-light-mouselab,False,3,1,"[0, 0, 0, 3, 3, 3, 2, 2, 2, 1, 1, 1, 4, 4, 4]","[[5, 4, 4, 7, 8], [3, 4, 6, 8, 5], [5, 5, 3, 5, 4]]","[[0, 0, 0, 0, 0], [3, 3, 3, 3, 3], [1, 1, 1, 1, 1]]","[25, 2, 3]",3,30,15,4,0.074,0.06899999999999999,0.005,"[0, 3, 2, 1, 4]",5,5,3,9110,15,222,207,none,False,2,traffic-light-mouselab,19,468752,4,0,0,0,6
traffic-light-mouselab,False,3,1,"[10, 13, 14, 12, 11, 4, 4, 4]","[[6, 5, 9, 8, 9], [4, 3, 6, 5, 6], [5, 4, 5, 5, 6]]","[[3, 3, 3, 3, 0], [3, 3, 3, 3, 3], [0, 0, 0, 0, 0]]","[10, 5, 15]",15,10,16,4,0.07,0.06733333333333334,0.0026666666666666666,"[10, 13, 14, 12, 11, 4]",6,5,3,9086,8,210,202,none,False,2,traffic-light-mouselab,20,479645,6,1,5,5,6
traffic-light-mouselab,False,3,1,"[5, 5, 5, 8, 8, 8, 7, 7, 7, 6, 6, 6, 9, 9, 9]","[[2, 5, 4, 3, 7], [3, 4, 7, 4, 6], [3, 4, 5, 5, 4]]","[[3, 3, 3, 3, 3], [0, 0, 0, 0, 0], [1, 1, 1, 1, 1]]","[3, 24, 3]",3,28,17,2,0.065,0.060000000000000005,0.005,"[5, 8, 7, 6, 9]",5,5,3,8630,15,195,180,none,False,2,traffic-light-mouselab,21,489947,5,1,0,0,6
traffic-light-mouselab,False,3,1,"[5, 5, 7, 6, 8, 9, 0, 0, 0, 3, 3, 3]","[[6, 8, 2, 6, 6], [7, 5, 5, 7, 5], [5, 2, 2, 8, 6]]","[[0, 3, 3, 0, 3], [0, 0, 0, 0, 0], [3, 3, 3, 3, 3]]","[1, 28, 1]",28,36,18,3,0.07,0.06633333333333334,0.0036666666666666666,"[5, 7, 6, 8, 9, 0, 3]",7,5,3,11978,11,210,199,none,False,1,traffic-light-mouselab,22,503837,7,1,6,5,6
traffic-light-mouselab,False,3,1,"[5, 5, 5, 8, 8, 8, 9, 9, 9, 6, 6, 6, 7, 7, 7]","[[9, 7, 5, 4, 1], [6, 5, 5, 7, 3], [6, 6, 7, 7, 3]]","[[1, 1, 1, 1, 1], [0, 0, 0, 0, 0], [3, 3, 3, 3, 3]]","[4, 23, 3]",4,26,19,3,0.066,0.061000000000000006,0.005,"[5, 8, 9, 6, 7]",5,5,3,8597,15,198,183,none,False,0,traffic-light-mouselab,23,514459,4,0,0,0,6
traffic-light-mouselab,False,3,1,"[5, 5, 5, 7, 7, 7, 8, 8, 8, 9, 9, 9, 13, 13, 13, 12, 12, 12, 11, 11, 11, 6, 6, 6]","[[2, 2, 7, 6, 4], [3, 4, 5, 8, 5], [3, 4, 4, 3, 7]]","[[3, 3, 3, 3, 3], [0, 0, 0, 0, 0], [3, 0, 0, 0, 3]]","[2, 18, 10]",2,16,20,3,0.062,0.054,0.008,"[5, 7, 8, 9, 13, 12, 11, 6]",8,5,3,13509,24,186,162,none,True,0,traffic-light-mouselab,24,529895,6,0,0,0,6
traffic-light-mouselab,False,3,1,"[5, 8, 9, 7, 6, 1, 1, 1, 0, 0, 0]","[[5, 4, 3, 6, 2], [7, 8, 4, 6, 5], [4, 6, 2, 2, 5]]","[[0, 0, 3, 3, 3], [0, 0, 0, 0, 0], [3, 3, 3, 3, 3]]","[11, 15, 4]",15,12,21,1,0.063,0.059333333333333335,0.0036666666666666666,"[5, 8, 9, 7, 6, 1, 0]",7,5,3,11761,11,188,177,none,False,1,traffic-light-mouselab,25,543232,8,1,5,5,6
traffic-light-mouselab,False,3,1,"[5, 5, 5, 8, 8, 8, 7, 7, 7, 9, 9, 9, 6, 6, 6, 14, 14, 14, 13, 13, 13]","[[5, 2, 5, 6, 2], [3, 5, 5, 7, 7], [3, 1, 6, 7, 4]]","[[3, 3, 3, 3, 3], [0, 0, 0, 0, 0], [3, 3, 3, 0, 0]]","[9, 11, 10]",9,2,22,3,0.067,0.060000000000000005,0.007,"[5, 8, 7, 9, 6, 14, 13]",7,5,3,12203,21,201,180,none,True,0,traffic-light-mouselab,26,556931,6,1,0,0,6
traffic-light-mouselab,False,3,1,"[13, 13, 13, 12, 12, 12, 11, 11, 11, 10, 10, 10, 14, 14, 14, 8, 9]","[[7, 8, 7, 3, 5], [2, 7, 0, 4, 6], [5, 2, 2, 7, 5]]","[[3, 3, 3, 3, 3], [1, 1, 1, 0, 0], [0, 0, 0, 0, 0]]","[3, 12, 15]",12,14,23,3,0.054,0.04833333333333333,0.005666666666666667,"[13, 12, 11, 10, 14, 8, 9]",7,5,3,12312,17,162,145,none,False,1,traffic-light-mouselab,27,571573,4,0,2,2,6
traffic-light-mouselab,False,3,1,"[5, 5, 5, 7, 7, 7, 8, 8, 8, 9, 9, 9, 6, 6, 6]","[[4, 3, 4, 6, 3], [6, 9, 1, 5, 2], [3, 8, 5, 3, 6]]","[[3, 3, 3, 3, 3], [0, 0, 0, 0, 0], [3, 3, 3, 3, 3]]","[6, 16, 8]",6,12,24,1,0.075,0.06999999999999999,0.005,"[5, 7, 8, 9, 6]",5,5,3,10336,15,226,211,none,True,0,traffic-light-mouselab,28,584022,3,0,0,0,6
traffic-light-mouselab,False,3,1,"[0, 0, 0, 2, 2, 2, 4, 4, 4, 3, 3, 3, 1, 1, 1, 6, 6, 6, 7, 7, 7]","[[3, 5, 6, 3, 4], [7, 8, 5, 3, 4], [5, 1, 1, 5, 6]]","[[0, 0, 0, 0, 0], [3, 0, 0, 3, 3], [3, 3, 3, 3, 3]]","[23, 5, 2]",5,26,25,1,0.052,0.045,0.007,"[0, 2, 4, 3, 1, 6, 7]",7,5,3,11705,21,157,136,none,True,1,traffic-light-mouselab,29,597816,8,1,6,2,6
traffic-light-mouselab,False,3,1,"[0, 0, 0, 1, 1, 1, 2, 2, 2, 3, 3, 3, 4, 4, 4, 13, 12, 11, 10, 14]","[[4, 5, 5, 5, 3], [7, 4, 5, 4, 4], [6, 6, 6, 6, 4]]","[[0, 0, 0, 0, 0], [3, 3, 3, 3, 3], [0, 0, 0, 0, 0]]","[16, 1, 13]",13,18,26,1,0.054,0.04733333333333333,0.006666666666666667,"[0, 1, 2, 3, 4, 13, 12, 11, 10, 14]",10,5,3,16472,20,162,142,none,False,2,traffic-light-mouselab,30,616072,6,1,5,5,6
traffic-light-mouselab,False,3,1,"[11, 11, 11, 10, 10, 10, 12, 12, 12, 13, 13, 13, 14, 14, 14, 0, 5, 5, 5, 6, 6, 6]","[[5, 5, 5, 6, 5], [5, 10, 5, 2, 4], [7, 5, 4, 5, 4]]","[[0, 1, 1, 1, 1], [0, 0, 3, 3, 3], [0, 0, 0, 0, 0]]","[7, 11, 12]",7,6,27,1,0.068,0.060666666666666674,0.007333333333333333,"[11, 10, 12, 13, 14, 0, 5, 6]",8,5,3,18170,22,205,183,none,False,0,traffic-light-mouselab,31,636154,5,0,1,1,6
traffic-light-mouselab,False,3,1,"[10, 10, 10, 11, 11, 11, 12, 12, 12, 13, 13, 13, 14, 14, 14, 3, 3, 3, 0, 0, 0]","[[5, 3, 6, 3, 7], [8, 9, 5, 6, 4], [6, 4, 3, 7, 5]]","[[0, 3, 3, 0, 3], [3, 3, 3, 3, 3], [0, 0, 0, 0, 0]]","[8, 6, 16]",8,12,28,3,0.057,0.05,0.007,"[10, 11, 12, 13, 14, 3, 0]",7,5,3,15598,21,172,151,none,True,0,traffic-light-mouselab,32,653328,3,0,6,2,6
traffic-light-mouselab,False,3,1,"[0, 0, 0, 2, 2, 2, 3, 3, 3]","[[4, 4, 6, 7, 6], [4, 6, 7, 6, 6], [4, 6, 9, 3, 4]]","[[0, 3, 0, 0, 3], [3, 3, 3, 3, 3], [3, 3, 3, 3, 3]]","[14, 9, 7]",9,8,29,3,0.058,0.055,0.003,"[0, 2, 3]",3,5,3,7677,9,173,164,none,True,1,traffic-light-mouselab,33,662404,6,0,0,0,6
traffic-light-mouselab,False,3,1,"[5, 5, 5, 8, 8, 8, 7, 7, 7, 6, 6, 6, 9, 9, 9, 11, 11, 11, 14, 14, 14]","[[4, 3, 5, 4, 8], [5, 6, 3, 3, 6], [5, 4, 5, 4, 8]]","[[3, 3, 3, 3, 3], [0, 0, 0, 0, 0], [3, 0, 3, 3, 0]]","[4, 20, 6]",6,20,30,4,0.067,0.060000000000000005,0.007,"[5, 8, 7, 6, 9, 11, 14]",7,5,3,18162,21,200,179,none,True,2,traffic-light-mouselab,34,682046,8,1,6,2,6
traffic-light-mouselab,False,3,1,"[10, 10, 10, 12, 12, 12, 13, 13, 13, 14, 14, 14, 11, 11, 11]","[[3, 7, 6, 6, 5], [4, 8, 9, 2, 5], [5, 5, 3, 5, 3]]","[[3, 3, 3, 3, 3], [3, 3, 3, 3, 3], [0, 0, 0, 0, 0]]","[4, 2, 24]",4,28,31,1,0.055,0.05,0.005,"[10, 12, 13, 14, 11]",5,5,3,11143,15,164,149,none,True,0,traffic-light-mouselab,35,695392,7,1,0,0,6
traffic-light-mouselab,False,3,1,"[5, 5, 5, 6, 6, 6, 9, 9, 9, 8, 8, 8, 7, 7, 7]","[[7, 7, 6, 4, 4], [7, 4, 4, 4, 6], [7, 3, 8, 5, 4]]","[[1, 1, 1, 1, 1], [0, 0, 0, 0, 0], [3, 3, 3, 3, 3]]","[3, 25, 2]",3,30,32,0,0.07,0.065,0.005,"[5, 6, 9, 8, 7]",5,5,3,8348,15,210,195,none,False,0,traffic-light-mouselab,36,705500,7,1,0,0,6
traffic-light-mouselab,True,3,1,"[0, 0, 0, 7, 7, 7]","[[7, 6, 5, 5, 5], [7, 5, 8, 7, 8], [5, 6, 8, 8, 5]]","[[0, 3, 3, 3, 3], [3, 3, 0, 3, 3], [3, 3, 3, 3, 3]]","[3, 6, 21]",21,22,1,2,0.077,0.075,0.002,"[0, 7]",2,5,3,28672,6,231,225,none,True,2,traffic-light-mouselab,4,184104,8,1,0,0,7
traffic-light-mouselab,True,3,1,"[5, 6, 7, 8, 9]","[[5, 4, 4, 6, 4], [4, 6, 5, 4, 9], [4, 2, 6, 7, 3]]","[[3, 3, 3, 3, 3], [0, 0, 0, 0, 0], [3, 3, 3, 3, 3]]","[5, 9, 16]",9,12,2,4,0.05,0.04833333333333334,0.0016666666666666668,"[5, 6, 7, 8, 9]",5,5,3,9950,5,149,144,none,False,1,traffic-light-mouselab,5,196319,9,1,5,5,7
traffic-light-mouselab,False,3,1,"[10, 10, 10, 12, 12, 12, 14, 14, 14]","[[5, 4, 5, 5, 7], [6, 5, 5, 6, 4], [7, 6, 5, 8, 6]]","[[3, 3, 3, 3, 3], [3, 3, 3, 3, 3], [0, 3, 0, 3, 0]]","[9, 9, 12]",9,4,3,0,0.061,0.057999999999999996,0.003,"[10, 12, 14]",3,5,3,10232,9,183,174,none,True,0,traffic-light-mouselab,7,212344,5,0,0,0,7
traffic-light-mouselab,False,3,1,"[1, 1, 1, 3, 3, 3, 5, 5, 5, 7, 7, 7]","[[3, 5, 4, 3, 4], [4, 7, 7, 4, 5], [3, 6, 7, 3, 8]]","[[3, 0, 3, 0, 3], [0, 3, 0, 3, 3], [3, 3, 3, 3, 3]]","[1, 1, 28]",1,36,4,2,0.069,0.065,0.004,"[1, 3, 5, 7]",4,5,3,24449,12,207,195,none,True,0,traffic-light-mouselab,8,238275,4,0,6,2,7
traffic-light-mouselab,False,3,1,"[0, 0, 0, 2, 2, 2, 4, 4, 4]","[[5, 6, 8, 7, 4], [6, 4, 4, 7, 4], [5, 3, 3, 7, 7]]","[[0, 3, 0, 3, 0], [3, 3, 3, 3, 3], [3, 3, 3, 3, 3]]","[3, 20, 7]",20,20,5,2,0.042,0.039,0.003,"[0, 2, 4]",3,5,3,13086,9,125,116,none,True,1,traffic-light-mouselab,9,252890,4,0,0,0,7
traffic-light-mouselab,False,3,1,"[5, 5, 5, 6, 6, 6, 7, 7, 7, 8, 8, 8, 9, 9, 9]","[[5, 6, 7, 3, 10], [6, 4, 3, 5, 1], [4, 7, 5, 4, 5]]","[[3, 3, 3, 3, 3], [0, 0, 0, 0, 0], [3, 3, 3, 3, 3]]","[15, 6, 9]",15,10,6,0,0.049,0.044000000000000004,0.005,"[5, 6, 7, 8, 9]",5,5,3,9820,15,147,132,none,True,0,traffic-light-mouselab,10,263977,5,0,0,0,7
traffic-light-mouselab,False,3,1,"[10, 11, 12, 13, 14, 1, 1, 1, 2, 2, 2]","[[6, 7, 9, 4, 7], [3, 5, 4, 4, 4], [4, 6, 6, 2, 5]]","[[3, 0, 0, 3, 3], [3, 3, 3, 3, 3], [0, 0, 0, 0, 0]]","[3, 20, 7]",7,20,7,2,0.05,0.04633333333333334,0.0036666666666666666,"[10, 11, 12, 13, 14, 1, 2]",7,5,3,8445,11,149,138,none,False,2,traffic-light-mouselab,11,273826,6,1,5,5,7
traffic-light-mouselab,False,3,1,"[5, 6, 7, 8, 9]","[[6, 4, 6, 5, 7], [0, 5, 6, 7, 3], [5, 1, 3, 6, 6]]","[[3, 3, 3, 3, 3], [0, 0, 0, 0, 0], [3, 3, 3, 3, 3]]","[4, 21, 5]",21,22,8,3,0.066,0.06433333333333334,0.0016666666666666668,"[5, 6, 7, 8, 9]",5,5,3,4319,5,197,192,none,False,1,traffic-light-mouselab,12,279920,7,1,5,5,7
traffic-light-mouselab,False,3,1,"[5, 5, 5, 6, 6, 6, 7, 7, 7, 8, 8, 8, 9, 9, 9, 1, 1, 1, 0, 0, 0, 3, 3, 3, 13, 13, 13, 11, 11, 11, 10, 10, 10]","[[2, 4, 5, 4, 2], [6, 6, 5, 6, 5], [5, 7, 5, 5, 5]]","[[0, 0, 3, 0, 3], [0, 0, 0, 0, 0], [0, 0, 3, 0, 3]]","[20, 4, 6]",4,20,9,1,0.049,0.038000000000000006,0.011,"[5, 6, 7, 8, 9, 1, 0, 3, 13, 11, 10]",11,5,3,19917,33,146,113,none,True,1,traffic-light-mouselab,13,304949,6,1,15,5,7
traffic-light-mouselab,False,3,1,"[10, 11, 12, 13, 14]","[[4, 3, 5, 7, 7], [9, 2, 4, 5, 5], [6, 7, 6, 8, 1]]","[[3, 3, 3, 3, 3], [3, 3, 3, 3, 3], [0, 0, 0, 0, 0]]","[11, 16, 3]",3,14,10,3,0.06,0.058333333333333334,0.0016666666666666668,"[10, 11, 12, 13, 14]",5,5,3,4408,5,181,176,none,False,2,traffic-light-mouselab,14,310740,8,1,5,5,7
traffic-light-mouselab,False,3,1,"[0, 1, 2, 3, 4]","[[6, 3, 8, 3, 4], [6, 2, 3, 5, 4], [5, 7, 3, 7, 3]]","[[0, 0, 0, 0, 0], [3, 3, 3, 3, 3], [3, 3, 3, 3, 3]]","[9, 15, 6]",9,10,11,2,0.045,0.043333333333333335,0.0016666666666666668,"[0, 1, 2, 3, 4]",5,5,3,4723,5,135,130,none,False,0,traffic-light-mouselab,15,316817,8,1,5,5,7
traffic-light-mouselab,False,3,1,"[0, 1, 2, 3, 4, 8, 8, 8, 6, 6, 6]","[[4, 4, 3, 6, 4], [4, 3, 4, 4, 3], [9, 6, 4, 7, 5]]","[[0, 0, 0, 0, 0], [3, 0, 3, 0, 3], [3, 3, 3, 3, 3]]","[15, 3, 12]",15,14,12,3,0.062,0.058333333333333334,0.0036666666666666666,"[0, 1, 2, 3, 4, 8, 6]",7,5,3,9032,11,186,175,none,False,0,traffic-light-mouselab,16,326944,6,1,5,5,7
traffic-light-mouselab,False,3,1,"[10, 11, 12, 13, 14]","[[6, 3, 6, 8, 6], [2, 2, 6, 7, 4], [4, 5, 2, 3, 6]]","[[3, 3, 3, 3, 3], [3, 3, 3, 3, 3], [0, 0, 0, 0, 0]]","[3, 4, 23]",23,26,13,4,0.057,0.05533333333333334,0.0016666666666666668,"[10, 11, 12, 13, 14]",5,5,3,4358,5,172,167,none,False,2,traffic-light-mouselab,17,332515,6,1,5,5,7
traffic-light-mouselab,False,3,1,"[5, 6, 7, 8, 9]","[[4, 5, 1, 6, 8], [4, 7, 4, 6, 3], [4, 3, 5, 5, 5]]","[[3, 3, 3, 3, 3], [0, 0, 0, 0, 0], [3, 3, 3, 3, 3]]","[4, 12, 14]",12,12,14,1,0.049,0.04733333333333334,0.0016666666666666668,"[5, 6, 7, 8, 9]",5,5,3,4337,5,146,141,none,False,1,traffic-light-mouselab,18,338147,7,1,5,5,7
traffic-light-mouselab,False,3,1,"[5, 5, 5, 6, 6, 6, 7, 7, 7, 8, 8, 8, 9, 9, 9, 4, 4, 4, 1, 1, 1, 0, 0, 0, 10, 10, 10, 14, 14, 14]","[[4, 2, 2, 5, 4], [7, 7, 4, 6, 7], [6, 9, 7, 6, 8]]","[[0, 0, 3, 3, 0], [0, 0, 0, 0, 0], [0, 3, 3, 3, 0]]","[14, 5, 11]",5,10,15,4,0.06,0.049999999999999996,0.01,"[5, 6, 7, 8, 9, 4, 1, 0, 10, 14]",10,5,3,18660,30,179,149,none,True,1,traffic-light-mouselab,19,358110,7,1,15,5,7
traffic-light-mouselab,False,3,1,"[0, 0, 0, 1, 1, 1, 2, 2, 2, 3, 3, 3, 4, 4, 4]","[[4, 6, 6, 7, 3], [2, 7, 7, 2, 4], [5, 5, 6, 7, 5]]","[[0, 0, 0, 0, 0], [3, 3, 3, 3, 3], [3, 3, 3, 3, 3]]","[3, 10, 17]",3,14,16,3,0.053,0.048,0.005,"[0, 1, 2, 3, 4]",5,5,3,7645,15,160,145,none,True,0,traffic-light-mouselab,20,367111,7,1,15,5,7
traffic-light-mouselab,False,3,1,"[10, 11, 12, 13, 14]","[[5, 4, 10, 5, 5], [4, 4, 2, 5, 7], [5, 3, 3, 4, 6]]","[[3, 3, 3, 3, 3], [3, 3, 3, 3, 3], [0, 0, 0, 0, 0]]","[4, 13, 13]",13,12,17,4,0.063,0.06133333333333334,0.0016666666666666668,"[10, 11, 12, 13, 14]",5,5,3,5081,5,189,184,none,False,2,traffic-light-mouselab,21,373645,6,1,5,5,7
traffic-light-mouselab,False,3,1,"[10, 11, 12, 13, 14]","[[4, 4, 4, 5, 6], [6, 5, 7, 5, 4], [4, 2, 1, 7, 3]]","[[3, 3, 3, 3, 3], [3, 3, 3, 3, 3], [0, 0, 0, 0, 0]]","[4, 21, 5]",5,22,18,3,0.053,0.051333333333333335,0.0016666666666666668,"[10, 11, 12, 13, 14]",5,5,3,4227,5,160,155,none,False,2,traffic-light-mouselab,22,380103,7,1,5,5,7
traffic-light-mouselab,False,3,1,"[10, 10, 10, 11, 11, 11, 12, 12, 12, 13, 13, 13, 14, 14, 14]","[[4, 4, 4, 5, 5], [3, 4, 3, 5, 10], [7, 6, 5, 3, 2]]","[[3, 3, 3, 3, 3], [3, 3, 3, 3, 3], [0, 0, 0, 0, 0]]","[2, 12, 16]",12,16,19,0,0.052,0.047,0.005,"[10, 11, 12, 13, 14]",5,5,3,7480,15,156,141,none,True,1,traffic-light-mouselab,23,388830,3,0,0,0,7
traffic-light-mouselab,False,3,1,"[0, 1, 2, 3, 4]","[[7, 4, 4, 5, 5], [3, 6, 5, 3, 4], [4, 2, 7, 7, 5]]","[[0, 0, 0, 0, 0], [3, 3, 3, 3, 3], [3, 3, 3, 3, 3]]","[19, 5, 6]",19,18,20,0,0.057,0.05533333333333334,0.0016666666666666668,"[0, 1, 2, 3, 4]",5,5,3,4089,5,172,167,none,False,0,traffic-light-mouselab,24,394002,7,1,5,5,7
traffic-light-mouselab,False,3,1,"[10, 11, 12, 13, 14]","[[5, 4, 4, 4, 7], [8, 5, 4, 3, 4], [3, 4, 7, 3, 5]]","[[3, 3, 3, 3, 3], [3, 3, 3, 3, 3], [0, 0, 0, 0, 0]]","[5, 21, 4]",4,22,21,2,0.044,0.042333333333333334,0.0016666666666666668,"[10, 11, 12, 13, 14]",5,5,3,3939,5,132,127,none,False,2,traffic-light-mouselab,25,399032,7,1,5,5,7
traffic-light-mouselab,False,3,1,"[10, 10, 10, 11, 11, 11]","[[6, 4, 1, 7, 7], [8, 4, 6, 6, 5], [7, 3, 5, 6, 3]]","[[3, 3, 3, 3, 3], [3, 3, 3, 3, 3], [0, 0, 3, 3, 3]]","[6, 10, 14]",14,8,22,0,0.071,0.06899999999999999,0.002,"[10, 11]",2,5,3,5403,6,214,208,none,True,2,traffic-light-mouselab,26,405323,7,1,6,2,7
traffic-light-mouselab,False,3,1,"[5, 6, 7, 8, 9]","[[3, 4, 6, 4, 7], [3, 7, 6, 5, 9], [8, 9, 3, 3, 5]]","[[3, 3, 3, 3, 3], [0, 0, 0, 0, 0], [3, 3, 3, 3, 3]]","[20, 9, 1]",9,20,23,4,0.075,0.07333333333333333,0.0016666666666666668,"[5, 6, 7, 8, 9]",5,5,3,3884,5,226,221,none,False,1,traffic-light-mouselab,27,410254,9,1,5,5,7
traffic-light-mouselab,False,3,1,"[5, 5, 5, 6, 6, 6]","[[4, 4, 4, 7, 5], [8, 3, 6, 6, 4], [6, 7, 6, 4, 8]]","[[3, 3, 3, 3, 3], [0, 0, 3, 3, 3], [3, 3, 3, 3, 3]]","[15, 2, 13]",13,16,24,0,0.051,0.048999999999999995,0.002,"[5, 6]",2,5,3,3590,6,154,148,none,True,2,traffic-light-mouselab,28,415469,6,0,0,0,7
traffic-light-mouselab,False,3,1,"[5, 6, 7, 8, 9, 9]","[[5, 7, 7, 6, 3], [7, 4, 5, 8, 5], [4, 4, 3, 7, 5]]","[[3, 3, 3, 3, 3], [0, 0, 0, 0, 0], [3, 3, 3, 3, 3]]","[15, 11, 4]",11,12,25,3,0.069,0.06733333333333334,0.0016666666666666668,"[5, 6, 7, 8, 9]",5,5,3,3851,5,206,201,none,False,1,traffic-light-mouselab,29,420250,8,1,6,5,7
traffic-light-mouselab,False,3,1,"[0, 0, 0, 1, 1, 1, 2, 2, 2, 3, 3, 3, 4, 4, 4, 6, 6, 6, 5, 5, 5]","[[6, 6, 2, 4, 4], [8, 6, 5, 6, 8], [6, 8, 7, 7, 6]]","[[0, 0, 0, 0, 0], [0, 0, 3, 3, 3], [3, 3, 3, 3, 3]]","[2, 24, 4]",2,28,26,0,0.076,0.06899999999999999,0.007,"[0, 1, 2, 3, 4, 6, 5]",7,5,3,11490,21,228,207,none,True,0,traffic-light-mouselab,30,433303,6,1,15,5,7
traffic-light-mouselab,False,3,1,"[5, 5, 5, 6, 6, 6, 7, 7, 7, 8, 8, 8, 9, 9, 9]","[[5, 6, 4, 7, 8], [4, 2, 3, 6, 5], [4, 6, 2, 3, 2]]","[[3, 3, 3, 3, 3], [0, 0, 0, 0, 0], [3, 3, 3, 3, 3]]","[4, 7, 19]",7,18,27,3,0.042,0.037000000000000005,0.005,"[5, 6, 7, 8, 9]",5,5,3,6045,15,127,112,none,True,1,traffic-light-mouselab,31,440401,6,1,15,5,7
traffic-light-mouselab,False,3,1,"[10, 11, 12, 13, 14]","[[9, 6, 8, 5, 3], [5, 4, 5, 5, 7], [8, 6, 4, 6, 4]]","[[3, 3, 3, 3, 3], [3, 3, 3, 3, 3], [0, 0, 0, 0, 0]]","[9, 3, 18]",18,16,28,0,0.08,0.07833333333333334,0.0016666666666666668,"[10, 11, 12, 13, 14]",5,5,3,4228,5,240,235,none,False,2,traffic-light-mouselab,32,445979,8,1,5,5,7
traffic-light-mouselab,False,3,1,"[10, 10, 10, 11, 11, 11]","[[5, 2, 4, 4, 1], [5, 5, 5, 4, 6], [3, 9, 5, 5, 7]]","[[3, 3, 3, 3, 3], [3, 3, 3, 3, 3], [0, 0, 3, 3, 3]]","[12, 11, 7]",12,6,29,1,0.047,0.045,0.002,"[10, 11]",2,5,3,4702,6,142,136,none,True,0,traffic-light-mouselab,33,451880,2,0,0,0,7
traffic-light-mouselab,False,3,1,"[10, 11, 12, 13, 14, 9, 9, 9, 8, 8, 8, 3, 3, 3, 4, 4, 4]","[[3, 5, 4, 2, 5], [7, 7, 7, 6, 6], [7, 5, 3, 8, 8]]","[[3, 3, 3, 0, 0], [3, 3, 3, 0, 0], [0, 0, 0, 0, 0]]","[12, 10, 8]",8,4,30,4,0.061,0.05533333333333333,0.005666666666666667,"[10, 11, 12, 13, 14, 9, 8, 3, 4]",9,5,3,8211,17,184,167,none,False,2,traffic-light-mouselab,34,461179,8,1,5,5,7
traffic-light-mouselab,False,3,1,"[10, 10, 10]","[[6, 6, 3, 6, 3], [7, 5, 6, 8, 4], [9, 2, 4, 5, 6]]","[[3, 3, 3, 3, 3], [3, 3, 3, 3, 3], [0, 3, 3, 3, 3]]","[12, 2, 16]",2,16,31,0,0.077,0.076,0.001,[10],1,5,3,3231,3,230,227,none,True,1,traffic-light-mouselab,35,465959,7,0,0,0,7
traffic-light-mouselab,False,3,1,"[10, 10, 10, 11, 11, 11, 12, 12, 12, 13, 13, 13, 14, 14, 14, 14]","[[5, 5, 5, 4, 6], [6, 8, 6, 9, 6], [4, 6, 6, 4, 7]]","[[3, 3, 3, 3, 3], [3, 3, 3, 3, 3], [0, 0, 0, 0, 0]]","[19, 9, 2]",19,18,32,4,0.061,0.056,0.005,"[10, 11, 12, 13, 14]",5,5,3,6670,15,182,167,none,True,0,traffic-light-mouselab,36,473608,6,1,0,0,7
traffic-light-mouselab,True,3,1,"[0, 0, 0, 8, 11, 11, 11, 7, 4, 4, 4, 3, 3, 3, 9, 5, 10, 10, 10, 1, 1, 1, 2, 2, 2, 6, 12, 12, 12, 13, 13, 13, 14, 14, 14, 13]","[[6, 2, 8, 5, 5], [7, 7, 4, 4, 5], [4, 6, 5, 6, 5]]","[[0, 0, 0, 0, 0], [0, 0, 0, 0, 0], [0, 0, 0, 0, 0]]","[10, 12, 8]",12,4,1,2,0.056,0.044333333333333336,0.011666666666666667,"[0, 8, 11, 7, 4, 3, 9, 5, 10, 1, 2, 6, 12, 13, 14]",15,5,3,63678,35,168,133,none,False,1,traffic-light-mouselab,4,443670,4,0,5,5,8
traffic-light-mouselab,True,3,1,"[1, 1, 1, 1, 6, 6, 6, 6, 11, 11, 11, 10, 10, 10, 5, 5, 5, 0, 0, 0]","[[6, 4, 5, 5, 6], [4, 5, 6, 4, 4], [5, 7, 3, 4, 6]]","[[0, 0, 3, 3, 3], [0, 0, 3, 3, 3], [0, 0, 3, 3, 3]]","[11, 6, 13]",13,8,2,1,0.055,0.049,0.006,"[1, 6, 11, 10, 5, 0]",6,5,3,10575,18,165,147,none,True,2,traffic-light-mouselab,5,456062,7,1,6,2,8
traffic-light-mouselab,False,3,1,"[14, 10, 4, 4, 4, 9, 9, 9]","[[5, 3, 4, 7, 5], [5, 4, 4, 5, 5], [2, 7, 3, 4, 6]]","[[3, 3, 3, 3, 0], [3, 3, 3, 3, 0], [0, 1, 1, 1, 0]]","[6, 2, 22]",22,24,3,4,0.057,0.05433333333333334,0.0026666666666666666,"[14, 10, 4, 9]",4,5,3,8696,8,172,164,none,False,2,traffic-light-mouselab,7,471975,6,0,2,2,8
traffic-light-mouselab,False,3,1,"[2, 2, 2, 7, 7, 7, 12, 12, 12, 0, 0, 0, 5, 5, 5, 10, 10, 10, 4, 4, 4, 9, 9, 9, 14, 14, 14]","[[3, 5, 6, 8, 6], [4, 6, 6, 6, 5], [9, 6, 4, 5, 8]]","[[0, 3, 0, 3, 0], [0, 3, 0, 3, 0], [0, 3, 0, 3, 0]]","[1, 22, 7]",7,24,4,4,0.057,0.048,0.009,"[2, 7, 12, 0, 5, 10, 4, 9, 14]",9,5,3,25422,27,172,145,none,True,2,traffic-light-mouselab,8,501038,8,0,9,3,8
traffic-light-mouselab,False,3,1,"[14, 14, 14, 4, 4, 4, 12, 12, 12, 11, 11, 11, 6, 6, 6, 1, 1, 1]","[[6, 4, 5, 5, 2], [9, 8, 5, 9, 1], [4, 5, 0, 4, 8]]","[[3, 0, 3, 3, 0], [3, 0, 3, 3, 3], [3, 0, 0, 3, 0]]","[10, 9, 11]",10,2,5,1,0.056,0.05,0.006,"[14, 4, 12, 11, 6, 1]",6,5,3,20024,18,167,149,none,True,0,traffic-light-mouselab,9,522839,4,0,6,2,8
traffic-light-mouselab,False,3,1,"[4, 14, 14, 14, 2, 0, 10, 10, 10, 13, 13, 13, 9, 9, 9, 3, 8, 8, 8]","[[6, 5, 3, 5, 6], [5, 4, 4, 6, 2], [4, 7, 8, 4, 6]]","[[0, 1, 0, 0, 0], [3, 3, 3, 0, 0], [0, 3, 3, 0, 0]]","[2, 21, 7]",2,22,6,3,0.055,0.048666666666666664,0.006333333333333333,"[4, 14, 2, 0, 10, 13, 9, 3, 8]",9,5,3,25030,19,164,145,none,False,0,traffic-light-mouselab,10,561607,5,0,4,4,8
traffic-light-mouselab,False,3,1,"[4, 4, 4, 9, 9, 9, 14, 14, 14]","[[6, 7, 7, 5, 6], [4, 4, 2, 3, 6], [6, 8, 7, 6, 5]]","[[3, 3, 3, 3, 0], [3, 3, 3, 3, 0], [3, 3, 3, 3, 0]]","[27, 2, 1]",1,34,7,4,0.06,0.056999999999999995,0.003,"[4, 9, 14]",3,5,3,10342,9,179,170,none,True,2,traffic-light-mouselab,11,575078,5,0,3,1,8
traffic-light-mouselab,False,3,1,"[2, 2, 2, 4, 4, 4, 1, 1, 1, 6, 6, 6, 11, 11, 11]","[[8, 6, 4, 5, 5], [5, 9, 1, 3, 6], [7, 4, 3, 3, 6]]","[[3, 0, 0, 3, 0], [3, 0, 3, 3, 3], [3, 0, 3, 3, 3]]","[9, 16, 5]",9,12,8,1,0.073,0.06799999999999999,0.005,"[2, 4, 1, 6, 11]",5,5,3,9071,15,218,203,none,True,0,traffic-light-mouselab,12,585894,6,0,9,3,8
traffic-light-mouselab,False,3,1,"[12, 10, 5, 5, 5, 0, 0, 0]","[[5, 7, 4, 3, 4], [7, 4, 6, 2, 4], [7, 5, 3, 6, 3]]","[[0, 3, 3, 3, 3], [0, 3, 3, 3, 3], [0, 1, 0, 1, 1]]","[5, 22, 3]",3,24,9,0,0.067,0.06433333333333334,0.0026666666666666666,"[12, 10, 5, 0]",4,5,3,9359,8,200,192,none,False,2,traffic-light-mouselab,13,597726,7,1,2,2,8
traffic-light-mouselab,False,3,1,"[14, 14, 14, 4, 4, 4, 9, 9, 9, 10, 10, 10, 5, 5, 5, 12, 12, 12, 2, 2, 2, 0, 0, 0]","[[7, 5, 2, 5, 5], [3, 1, 7, 3, 1], [6, 6, 4, 4, 8]]","[[0, 3, 0, 3, 0], [0, 3, 3, 3, 0], [0, 3, 0, 3, 0]]","[17, 4, 9]",9,14,10,0,0.062,0.054,0.008,"[14, 4, 9, 10, 5, 12, 2, 0]",8,5,3,22096,24,185,161,none,True,2,traffic-light-mouselab,14,623981,6,0,9,3,8
traffic-light-mouselab,False,3,1,"[0, 4, 2, 7, 7, 7, 12, 12, 12]","[[3, 4, 7, 8, 3], [7, 2, 6, 5, 3], [3, 5, 4, 5, 5]]","[[0, 1, 0, 1, 0], [3, 3, 0, 3, 3], [3, 3, 0, 3, 3]]","[11, 15, 4]",11,12,11,2,0.061,0.057999999999999996,0.003,"[0, 4, 2, 7, 12]",5,5,3,6655,9,183,174,none,False,0,traffic-light-mouselab,15,632439,7,0,3,3,8
traffic-light-mouselab,False,3,1,"[8, 3, 3, 3, 13, 13, 13]","[[6, 4, 5, 1, 3], [2, 3, 5, 7, 3], [5, 6, 2, 4, 5]]","[[3, 3, 3, 0, 3], [1, 1, 1, 0, 1], [3, 3, 3, 0, 3]]","[9, 20, 1]",20,20,12,3,0.051,0.048666666666666664,0.0023333333333333335,"[8, 3, 13]",3,5,3,8990,7,153,146,none,False,1,traffic-light-mouselab,16,646358,7,1,1,1,8
traffic-light-mouselab,False,3,1,"[14, 14, 14, 4, 4, 4, 9, 9, 9]","[[3, 8, 3, 5, 6], [5, 6, 4, 5, 5], [6, 3, 3, 6, 5]]","[[3, 3, 3, 3, 0], [3, 3, 3, 3, 0], [3, 3, 3, 3, 0]]","[19, 10, 1]",10,18,13,4,0.056,0.053,0.003,"[14, 4, 9]",3,5,3,6958,9,169,160,none,True,1,traffic-light-mouselab,17,661918,5,0,3,1,8
traffic-light-mouselab,False,3,1,"[7, 7, 7, 12, 12, 12, 2, 2, 2, 14, 14, 14, 9, 9, 9, 4, 4, 4]","[[6, 3, 2, 3, 6], [9, 5, 5, 2, 7], [5, 7, 7, 3, 5]]","[[3, 3, 0, 3, 0], [3, 3, 0, 3, 0], [3, 3, 0, 3, 0]]","[3, 12, 15]",3,14,14,4,0.059,0.053,0.006,"[7, 12, 2, 14, 9, 4]",6,5,3,11079,18,177,159,none,True,0,traffic-light-mouselab,18,677382,6,1,6,2,8
traffic-light-mouselab,False,3,1,"[3, 1, 11, 6, 11, 11, 6, 6]","[[7, 10, 6, 7, 6], [7, 5, 5, 5, 7], [9, 6, 8, 3, 6]]","[[1, 0, 1, 0, 1], [3, 0, 3, 3, 3], [3, 0, 3, 3, 3]]","[8, 7, 15]",8,10,15,1,0.068,0.06533333333333334,0.0026666666666666666,"[3, 1, 11, 6]",4,5,3,10976,8,205,197,none,False,0,traffic-light-mouselab,19,693246,10,1,2,2,8
traffic-light-mouselab,False,3,1,"[1, 2, 4, 7, 7, 7, 12, 12, 12]","[[4, 4, 7, 9, 5], [6, 5, 7, 6, 4], [2, 6, 6, 4, 5]]","[[1, 0, 0, 1, 0], [3, 3, 0, 3, 3], [3, 3, 0, 3, 3]]","[14, 13, 3]",14,14,16,2,0.069,0.066,0.003,"[1, 2, 4, 7, 12]",5,5,3,9271,9,207,198,none,False,0,traffic-light-mouselab,20,704406,7,0,3,3,8
traffic-light-mouselab,False,3,1,"[1, 1, 1, 5, 5, 5, 4, 4, 4, 9, 9, 9, 14, 14, 14]","[[6, 5, 7, 6, 6], [2, 4, 5, 5, 3], [3, 1, 8, 4, 7]]","[[3, 0, 3, 3, 0], [0, 3, 3, 3, 0], [3, 3, 3, 3, 0]]","[10, 4, 16]",10,12,17,4,0.061,0.056,0.005,"[1, 5, 4, 9, 14]",5,5,3,11047,15,184,169,none,True,0,traffic-light-mouselab,21,718389,6,0,6,2,8
traffic-light-mouselab,False,3,1,"[10, 12, 14, 13, 11, 5, 5, 5, 0, 0, 0]","[[6, 8, 5, 3, 1], [6, 5, 4, 5, 6], [5, 4, 3, 4, 3]]","[[0, 3, 3, 3, 3], [0, 3, 3, 3, 3], [0, 0, 0, 0, 0]]","[2, 13, 15]",15,16,18,0,0.055,0.051333333333333335,0.0036666666666666666,"[10, 12, 14, 13, 11, 5, 0]",7,5,3,10785,11,165,154,none,False,2,traffic-light-mouselab,22,730918,5,1,5,5,8
traffic-light-mouselab,False,3,1,"[0, 0, 0, 1, 1, 1, 6, 6, 6, 11, 11, 11]","[[4, 6, 3, 5, 8], [4, 8, 4, 5, 4], [5, 9, 3, 3, 7]]","[[0, 0, 3, 3, 3], [3, 0, 3, 3, 3], [3, 0, 3, 3, 3]]","[11, 15, 4]",15,12,19,1,0.074,0.06999999999999999,0.004,"[0, 1, 6, 11]",4,5,3,7151,12,222,210,none,True,1,traffic-light-mouselab,23,740902,8,1,3,1,8
traffic-light-mouselab,False,3,1,"[11, 12, 14, 10, 5, 5, 5, 0, 0, 0, 6, 6, 6, 1, 1, 1]","[[3, 9, 5, 5, 4], [5, 6, 8, 7, 5], [7, 5, 4, 8, 5]]","[[0, 0, 3, 3, 3], [0, 0, 3, 3, 3], [0, 0, 0, 1, 0]]","[4, 1, 25]",25,30,20,1,0.056,0.050666666666666665,0.005333333333333333,"[11, 12, 14, 10, 5, 0, 6, 1]",8,5,3,12913,16,167,151,none,False,2,traffic-light-mouselab,24,755470,5,0,4,4,8
traffic-light-mouselab,False,3,1,"[11, 11, 11, 7, 7, 7, 5, 5, 5, 10, 10, 10, 0, 0, 0]","[[5, 3, 6, 4, 8], [6, 5, 4, 3, 7], [4, 4, 6, 7, 6]]","[[0, 3, 3, 3, 3], [0, 3, 0, 3, 3], [0, 0, 3, 3, 3]]","[22, 2, 6]",2,24,21,0,0.049,0.044000000000000004,0.005,"[11, 7, 5, 10, 0]",5,5,3,9168,15,146,131,none,True,1,traffic-light-mouselab,25,765879,6,0,6,2,8
traffic-light-mouselab,False,3,1,"[2, 4, 9, 9, 9, 1, 6, 6, 6, 11, 11, 11]","[[5, 5, 3, 7, 6], [7, 5, 4, 9, 2], [4, 6, 4, 4, 3]]","[[1, 0, 0, 1, 0], [3, 0, 3, 3, 0], [3, 0, 3, 3, 3]]","[11, 15, 4]",11,12,22,1,0.051,0.047,0.004,"[2, 4, 9, 1, 6, 11]",6,5,3,9606,12,154,142,none,False,0,traffic-light-mouselab,26,776918,5,0,3,3,8
traffic-light-mouselab,False,3,1,"[0, 0, 0, 5, 5, 5, 10, 10, 10]","[[6, 3, 7, 3, 7], [5, 4, 5, 5, 6], [2, 5, 4, 5, 7]]","[[0, 3, 3, 3, 3], [0, 3, 3, 3, 3], [0, 3, 3, 3, 3]]","[3, 9, 18]",9,16,23,0,0.033,0.030000000000000002,0.003,"[0, 5, 10]",3,5,3,4648,9,99,90,none,True,1,traffic-light-mouselab,27,782741,5,0,3,1,8
traffic-light-mouselab,False,3,1,"[3, 3, 3, 8, 8, 8, 13, 13, 13]","[[5, 5, 5, 5, 4], [6, 4, 7, 7, 6], [4, 8, 5, 4, 5]]","[[3, 3, 3, 0, 3], [3, 3, 3, 0, 3], [3, 3, 3, 0, 3]]","[25, 3, 2]",3,30,24,3,0.051,0.047999999999999994,0.003,"[3, 8, 13]",3,5,3,4712,9,154,145,none,True,1,traffic-light-mouselab,28,789726,7,1,3,1,8
traffic-light-mouselab,False,3,1,"[8, 6, 3, 3, 3, 13, 13, 13]","[[5, 6, 7, 7, 6], [3, 5, 6, 7, 2], [3, 4, 7, 3, 8]]","[[3, 3, 3, 0, 3], [1, 0, 1, 0, 1], [3, 3, 3, 0, 3]]","[21, 6, 3]",6,22,25,3,0.066,0.06333333333333334,0.0026666666666666666,"[8, 6, 3, 13]",4,5,3,6823,8,198,190,none,False,1,traffic-light-mouselab,29,798078,7,1,2,2,8
traffic-light-mouselab,False,3,1,"[11, 14, 9, 9, 9, 4, 4, 4]","[[3, 3, 5, 5, 6], [5, 3, 4, 4, 5], [5, 4, 3, 8, 6]]","[[3, 3, 3, 3, 0], [3, 3, 3, 3, 0], [1, 0, 1, 1, 0]]","[1, 7, 22]",22,24,26,4,0.058,0.05533333333333334,0.0026666666666666666,"[11, 14, 9, 4]",4,5,3,6640,8,173,165,none,False,2,traffic-light-mouselab,30,866056,6,0,2,2,8
traffic-light-mouselab,False,3,1,"[12, 7, 7, 7, 2, 2, 2]","[[2, 4, 4, 5, 7], [5, 7, 6, 5, 5], [8, 3, 5, 6, 5]]","[[3, 3, 0, 3, 3], [3, 3, 0, 3, 3], [1, 1, 0, 1, 1]]","[15, 5, 10]",10,10,27,2,0.047,0.04466666666666667,0.0023333333333333335,"[12, 7, 2]",3,5,3,6697,7,140,133,none,False,2,traffic-light-mouselab,31,877207,5,0,1,1,8
traffic-light-mouselab,False,3,1,"[14, 14, 14, 4, 4, 4, 9, 9, 9]","[[6, 6, 4, 3, 5], [5, 6, 7, 6, 7], [4, 5, 4, 4, 5]]","[[3, 3, 3, 3, 0], [3, 3, 3, 3, 0], [3, 3, 3, 3, 0]]","[14, 6, 10]",6,8,28,4,0.054,0.051,0.003,"[14, 4, 9]",3,5,3,8894,9,162,153,none,True,1,traffic-light-mouselab,32,892430,7,1,3,1,8
traffic-light-mouselab,False,3,1,"[1, 1, 1, 6, 6, 6, 11, 11, 11, 4, 4, 4, 9, 9, 9, 14, 14, 14, 3, 3, 3, 8, 8, 8, 13, 13, 13, 2, 2, 2, 7, 7, 7, 12, 12, 12, 0, 0, 0, 5, 5, 5, 10, 10, 10]","[[4, 6, 4, 8, 7], [3, 3, 4, 4, 4], [3, 6, 6, 5, 3]]","[[0, 0, 0, 0, 0], [0, 0, 0, 0, 0], [0, 0, 0, 0, 0]]","[18, 10, 2]",10,16,29,3,0.065,0.05,0.015,"[1, 6, 11, 4, 9, 14, 3, 8, 13, 2, 7, 12, 0, 5, 10]",15,5,3,21319,45,194,149,none,True,1,traffic-light-mouselab,33,915574,4,1,15,5,8
traffic-light-mouselab,False,3,1,"[12, 13, 14, 11, 10, 8, 8, 8, 3, 3, 3, 7, 7, 7, 2, 2, 2, 1, 1, 1, 6, 6, 6, 5, 5, 5, 0, 0, 0]","[[6, 4, 4, 5, 4], [3, 7, 6, 3, 3], [4, 5, 1, 5, 2]]","[[0, 0, 0, 0, 3], [0, 0, 0, 0, 3], [0, 0, 0, 0, 0]]","[15, 3, 12]",12,14,30,1,0.047,0.03733333333333333,0.009666666666666667,"[12, 13, 14, 11, 10, 8, 3, 7, 2, 1, 6, 5, 0]",13,5,3,13838,29,141,112,none,False,2,traffic-light-mouselab,34,933421,5,1,5,5,8
traffic-light-mouselab,False,3,1,"[3, 2, 4, 1, 0, 6, 6, 6, 11, 11, 11]","[[6, 7, 6, 5, 3], [8, 8, 3, 6, 3], [6, 5, 5, 4, 3]]","[[0, 0, 0, 0, 0], [3, 0, 3, 3, 3], [3, 0, 3, 3, 3]]","[9, 16, 5]",9,12,31,1,0.072,0.06833333333333333,0.0036666666666666666,"[3, 2, 4, 1, 0, 6, 11]",7,5,3,6326,11,216,205,none,False,0,traffic-light-mouselab,35,941558,7,1,5,5,8
traffic-light-mouselab,False,3,1,"[0, 0, 0, 0, 5, 5, 5, 10, 10, 10, 11, 11, 11, 6, 6, 6, 1, 1, 1, 2, 2, 2, 7, 7, 7, 12, 12, 12, 13, 13, 13, 8, 8, 8, 8, 3, 3, 3, 4, 4, 4, 9, 9, 9, 14, 14, 14]","[[7, 6, 6, 6, 6], [6, 7, 4, 6, 5], [5, 5, 7, 2, 6]]","[[0, 0, 0, 0, 0], [0, 0, 0, 0, 0], [0, 0, 0, 0, 0]]","[7, 3, 20]",3,20,32,4,0.059,0.044,0.015,"[0, 5, 10, 11, 6, 1, 2, 7, 12, 13, 8, 3, 4, 9, 14]",15,5,3,17695,45,177,132,none,True,1,traffic-light-mouselab,36,961310,5,0,16,5,8
traffic-light-mouselab,True,3,1,"[2, 6, 6, 6, 13, 13, 13, 3, 4, 1, 0, 0, 10, 5, 5, 5, 10, 10, 11, 11, 11, 12, 12, 12, 7, 7, 7, 8, 8, 8, 9, 9, 9, 14, 14, 14, 1]","[[5, 5, 4, 2, 4], [5, 5, 4, 7, 5], [5, 7, 1, 3, 4]]","[[0, 0, 0, 0, 0], [0, 0, 0, 0, 0], [0, 0, 0, 0, 0]]","[17, 4, 9]",17,14,1,1,0.056,0.044333333333333336,0.011666666666666667,"[2, 6, 13, 3, 4, 1, 0, 5, 10, 11, 12, 7, 8, 9, 14]",15,5,3,59628,35,168,133,none,False,0,traffic-light-mouselab,4,274198,5,1,7,5,9
traffic-light-mouselab,True,3,1,"[10, 10, 10, 1, 1, 1, 2, 2, 2, 3, 3, 3, 4, 4, 4, 0, 0, 0]","[[4, 5, 4, 7, 5], [5, 4, 4, 6, 8], [6, 6, 5, 4, 4]]","[[0, 0, 0, 0, 0], [3, 3, 3, 3, 3], [0, 3, 3, 3, 3]]","[18, 6, 6]",6,16,2,3,0.062,0.056,0.006,"[10, 1, 2, 3, 4, 0]",6,5,3,21742,18,186,168,none,True,1,traffic-light-mouselab,5,311657,6,0,0,0,9
traffic-light-mouselab,False,3,1,"[5, 5, 5]","[[5, 3, 3, 6, 4], [7, 6, 2, 3, 2], [6, 5, 5, 3, 3]]","[[3, 3, 3, 3, 3], [0, 3, 3, 3, 3], [3, 3, 3, 3, 3]]","[8, 20, 2]",8,20,3,0,0.064,0.063,0.001,[5],1,5,3,13665,3,192,189,none,True,0,traffic-light-mouselab,7,336555,5,0,0,0,9
traffic-light-mouselab,False,3,1,"[12, 12, 12]","[[5, 7, 7, 7, 5], [3, 6, 4, 3, 5], [5, 4, 7, 4, 7]]","[[3, 3, 3, 3, 3], [3, 3, 3, 3, 3], [3, 3, 0, 3, 3]]","[4, 3, 23]",23,26,4,2,0.067,0.066,0.001,[12],1,5,3,10647,3,201,198,none,True,2,traffic-light-mouselab,8,352198,7,1,3,1,9
traffic-light-mouselab,False,3,1,"[5, 5, 5, 7, 7, 7]","[[4, 5, 5, 9, 8], [4, 5, 7, 3, 3], [3, 4, 7, 6, 6]]","[[1, 1, 1, 1, 1], [0, 3, 0, 3, 3], [3, 3, 3, 3, 3]]","[1, 21, 8]",1,22,5,2,0.069,0.067,0.002,"[5, 7]",2,5,3,18079,6,208,202,none,False,0,traffic-light-mouselab,9,374996,5,0,0,0,9
traffic-light-mouselab,False,3,1,"[4, 4, 4, 3, 3, 3]","[[6, 4, 7, 7, 2], [4, 6, 3, 7, 6], [7, 4, 8, 8, 3]]","[[3, 3, 3, 0, 0], [3, 3, 3, 3, 3], [3, 3, 3, 3, 3]]","[14, 3, 13]",3,14,6,3,0.074,0.072,0.002,"[4, 3]",2,5,3,11384,6,223,217,none,True,1,traffic-light-mouselab,10,393669,7,1,0,0,9
traffic-light-mouselab,False,3,1,"[6, 7, 8]","[[5, 6, 6, 7, 2], [6, 5, 4, 6, 2], [4, 4, 6, 5, 5]]","[[3, 3, 3, 3, 3], [1, 0, 0, 0, 1], [3, 3, 3, 3, 3]]","[6, 8, 16]",8,12,7,3,0.057,0.056,0.001,"[6, 7, 8]",3,5,3,13650,3,170,167,none,False,1,traffic-light-mouselab,11,415560,6,1,3,3,9
traffic-light-mouselab,False,3,1,"[10, 10, 10, 12, 12, 12]","[[5, 7, 8, 5, 7], [6, 5, 2, 6, 7], [5, 5, 7, 5, 3]]","[[1, 1, 1, 1, 1], [3, 3, 3, 3, 3], [0, 3, 0, 3, 3]]","[4, 4, 22]",4,24,8,2,0.065,0.063,0.002,"[10, 12]",2,5,3,8469,6,194,188,none,False,0,traffic-light-mouselab,12,427090,8,1,0,0,9
traffic-light-mouselab,False,3,1,"[8, 8, 8]","[[5, 6, 7, 1, 5], [7, 6, 9, 9, 4], [6, 4, 4, 4, 4]]","[[3, 3, 3, 3, 3], [3, 3, 3, 0, 3], [3, 3, 3, 3, 3]]","[2, 21, 7]",7,22,9,3,0.073,0.072,0.001,[8],1,5,3,5228,3,219,216,none,True,2,traffic-light-mouselab,13,436117,4,0,0,0,9
traffic-light-mouselab,False,3,1,"[1, 1, 1, 4, 4, 4]","[[6, 5, 5, 3, 6], [6, 4, 6, 4, 6], [6, 6, 4, 7, 5]]","[[3, 0, 3, 3, 0], [3, 3, 3, 3, 3], [3, 3, 3, 3, 3]]","[16, 8, 6]",6,12,10,4,0.058,0.056,0.002,"[1, 4]",2,5,3,11764,6,174,168,none,True,2,traffic-light-mouselab,14,452264,5,0,0,0,9
traffic-light-mouselab,False,3,1,"[0, 0, 0, 2, 2, 2, 1, 1, 1]","[[4, 6, 1, 6, 6], [5, 7, 6, 5, 6], [5, 1, 8, 8, 6]]","[[0, 0, 0, 3, 3], [3, 3, 3, 3, 3], [3, 3, 3, 3, 3]]","[15, 2, 13]",2,16,11,1,0.039,0.036,0.003,"[0, 2, 1]",3,5,3,11203,9,117,108,none,True,1,traffic-light-mouselab,15,465966,7,1,0,0,9
traffic-light-mouselab,False,3,1,"[11, 12, 13]","[[4, 7, 2, 5, 9], [2, 4, 7, 8, 3], [5, 5, 6, 3, 3]]","[[3, 3, 3, 3, 3], [3, 3, 3, 3, 3], [1, 0, 0, 0, 1]]","[1, 20, 9]",9,20,12,2,0.065,0.064,0.001,"[11, 12, 13]",3,5,3,6502,3,196,193,none,False,2,traffic-light-mouselab,16,482406,6,1,3,3,9
traffic-light-mouselab,False,3,1,"[10, 10, 10, 12, 12, 12, 13, 13, 13]","[[5, 4, 7, 5, 6], [3, 5, 2, 6, 5], [5, 5, 6, 4, 5]]","[[3, 3, 3, 3, 3], [3, 3, 3, 3, 3], [0, 3, 0, 0, 3]]","[1, 3, 26]",3,32,13,2,0.056,0.053,0.003,"[10, 12, 13]",3,5,3,9670,9,169,160,none,True,1,traffic-light-mouselab,17,494218,2,0,0,0,9
traffic-light-mouselab,False,3,1,"[14, 14, 14]","[[2, 5, 7, 5, 8], [8, 2, 7, 6, 6], [3, 7, 5, 5, 6]]","[[3, 3, 3, 3, 3], [3, 3, 3, 3, 3], [3, 3, 3, 3, 0]]","[13, 3, 14]",3,14,14,4,0.069,0.068,0.001,[14],1,5,3,7417,3,206,203,none,True,1,traffic-light-mouselab,18,503947,6,0,0,0,9
traffic-light-mouselab,False,3,1,"[5, 6, 7, 8, 9]","[[4, 4, 8, 6, 7], [4, 4, 3, 5, 7], [3, 6, 4, 5, 6]]","[[3, 3, 3, 3, 3], [0, 0, 0, 0, 0], [3, 3, 3, 3, 3]]","[7, 21, 2]",21,22,15,4,0.069,0.06733333333333334,0.0016666666666666668,"[5, 6, 7, 8, 9]",5,5,3,6140,5,208,203,none,False,1,traffic-light-mouselab,19,515545,7,1,5,5,9
traffic-light-mouselab,False,3,1,"[11, 11, 11, 13, 13, 13]","[[7, 6, 6, 3, 7], [6, 7, 4, 4, 2], [5, 5, 6, 5, 4]]","[[3, 3, 3, 3, 3], [3, 3, 3, 3, 3], [3, 0, 3, 0, 3]]","[3, 6, 21]",6,22,16,1,0.055,0.053,0.002,"[11, 13]",2,5,3,7918,6,165,159,none,True,1,traffic-light-mouselab,20,525752,7,1,0,0,9
traffic-light-mouselab,False,3,1,"[2, 2, 2]","[[7, 7, 7, 7, 5], [7, 4, 8, 2, 6], [2, 3, 3, 4, 1]]","[[3, 3, 0, 3, 3], [3, 3, 3, 3, 3], [1, 1, 1, 1, 1]]","[17, 9, 4]",4,14,17,2,0.068,0.067,0.001,[2],1,5,3,5162,3,203,200,none,False,2,traffic-light-mouselab,21,532774,3,0,0,0,9
traffic-light-mouselab,False,3,1,"[6, 6, 6, 8, 8, 8]","[[3, 4, 7, 5, 7], [5, 4, 3, 4, 5], [6, 7, 3, 5, 8]]","[[3, 3, 3, 3, 3], [3, 0, 3, 0, 3], [3, 3, 3, 3, 3]]","[5, 15, 10]",10,10,18,2,0.037,0.034999999999999996,0.002,"[6, 8]",2,5,3,7247,6,110,104,none,True,2,traffic-light-mouselab,22,541985,3,0,0,0,9
traffic-light-mouselab,False,3,1,"[10, 11, 12, 13, 14]","[[9, 7, 5, 5, 4], [2, 5, 3, 7, 2], [4, 5, 5, 6, 6]]","[[3, 3, 3, 3, 3], [3, 3, 3, 3, 3], [0, 0, 0, 0, 0]]","[8, 11, 11]",11,4,19,4,0.04,0.03833333333333334,0.0016666666666666668,"[10, 11, 12, 13, 14]",5,5,3,8918,5,120,115,none,False,2,traffic-light-mouselab,23,554146,6,1,5,5,9
traffic-light-mouselab,False,3,1,"[12, 12, 12, 2]","[[6, 4, 3, 7, 4], [5, 7, 4, 3, 6], [4, 3, 6, 5, 9]]","[[1, 1, 0, 1, 1], [3, 3, 3, 3, 3], [3, 3, 0, 3, 3]]","[2, 9, 19]",2,18,20,2,0.052,0.050666666666666665,0.0013333333333333333,"[12, 2]",2,5,3,7344,4,156,152,none,False,0,traffic-light-mouselab,24,563147,3,0,1,1,9
traffic-light-mouselab,False,3,1,"[4, 3, 2, 1, 0]","[[5, 5, 4, 4, 5], [4, 3, 5, 4, 5], [4, 3, 5, 4, 2]]","[[0, 0, 0, 0, 0], [3, 3, 3, 3, 3], [3, 3, 3, 3, 3]]","[20, 2, 8]",20,20,21,1,0.043,0.04133333333333333,0.0016666666666666668,"[4, 3, 2, 1, 0]",5,5,3,11286,5,130,125,none,False,0,traffic-light-mouselab,25,575874,5,1,5,5,9
traffic-light-mouselab,False,3,1,"[10, 11, 13, 14, 12]","[[4, 7, 4, 7, 5], [8, 7, 2, 4, 6], [6, 4, 5, 6, 4]]","[[3, 3, 3, 3, 3], [3, 3, 3, 3, 3], [0, 0, 0, 0, 0]]","[10, 5, 15]",15,10,22,0,0.057,0.05533333333333334,0.0016666666666666668,"[10, 11, 13, 14, 12]",5,5,3,9017,5,170,165,none,False,2,traffic-light-mouselab,26,586831,6,1,5,5,9
traffic-light-mouselab,False,3,1,"[10, 10, 10, 12, 12, 12]","[[5, 6, 7, 4, 3], [3, 10, 3, 5, 6], [4, 4, 5, 8, 4]]","[[3, 3, 3, 3, 3], [3, 3, 3, 3, 3], [0, 3, 0, 3, 3]]","[4, 10, 16]",4,12,23,3,0.065,0.063,0.002,"[10, 12]",2,5,3,7068,6,194,188,none,True,0,traffic-light-mouselab,27,595769,4,0,0,0,9
traffic-light-mouselab,False,3,1,"[10, 11, 12, 13]","[[5, 7, 6, 7, 6], [9, 7, 4, 6, 5], [6, 5, 5, 9, 9]]","[[3, 3, 3, 3, 3], [3, 3, 3, 3, 3], [0, 0, 0, 0, 1]]","[9, 10, 11]",11,2,24,3,0.074,0.07266666666666666,0.0013333333333333333,"[10, 11, 12, 13]",4,5,3,5663,4,222,218,none,False,2,traffic-light-mouselab,28,603017,9,1,4,4,9
