type,is_practice,original_item_cost,sale_item_cost,click_values,payoff_matrix,cost_matrix,weights,highlight_weight,weights_deviation,trial_num,selected_option,gross_earnings,net_earnings,click_cost,uncovered_values,num_values_revealed,num_options,num_features,reaction_time,points_click_cost,points_action_utility,points_metalevel_reward,sale_type,is_control,sale_index,highlight_value,trial_type,trial_index,time_elapsed,highlight_value_check,maximized_highlighted_option,highlight_num_clicks,highlight_weight_check,num_highlight_reveals,participant_id,weights_sum
traffic-light-mouselab,True,3,1,"[0, 0, 0, 2, 2, 2, 4, 4, 4, 3, 3, 3, 1, 1, 1, 5, 5, 5, 6, 6, 6, 7, 7, 7, 8, 8, 8, 9, 9, 9, 14, 14, 14, 13, 13, 13, 13, 12, 12, 12, 11, 11, 11, 10, 10, 10]","[[3, 6, 7, 5, 7], [5, 5, 5, 4, 4], [4, 3, 5, 6, 7]]","[[0, 0, 0, 0, 0], [0, 0, 0, 0, 0], [0, 0, 0, 0, 0]]","[22, 5, 3]",3,24,1,4,0.065,0.05,0.015,"[0, 2, 4, 3, 1, 5, 6, 7, 8, 9, 14, 13, 12, 11, 10]",15,5,3,157058,45,195,150,none,True,2,3,traffic-light-mouselab,4,244835,7,1,16,3,5,0,30
traffic-light-mouselab,True,3,1,"[14, 14, 14]","[[1, 5, 8, 5, 4], [8, 4, 6, 5, 4], [5, 4, 6, 4, 4]]","[[3, 3, 3, 3, 3], [1, 1, 1, 1, 1], [3, 3, 3, 3, 0]]","[8, 9, 13]",9,6,2,2,0.065,0.064,0.001,[14],1,5,3,10579,3,196,193,none,False,1,9,traffic-light-mouselab,5,258053,6,0,0,9,0,0,30
traffic-light-mouselab,False,3,1,[],"[[7, 4, 8, 5, 5], [4, 2, 4, 7, 6], [5, 3, 2, 2, 8]]","[[3, 3, 3, 3, 3], [3, 3, 3, 3, 3], [1, 1, 1, 1, 1]]","[1, 5, 24]",24,28,3,0,0.049,0.049,0.0,[],0,5,3,27892,0,147,147,none,False,2,24,traffic-light-mouselab,7,342576,5,0,0,24,0,0,30
traffic-light-mouselab,False,3,1,[],"[[2, 6, 5, 4, 4], [3, 3, 3, 5, 6], [2, 4, 4, 3, 6]]","[[3, 3, 3, 3, 3], [3, 3, 3, 3, 3], [3, 3, 3, 3, 3]]","[23, 3, 4]",23,26,4,3,0.04,0.04,0.0,[],0,5,3,3960,0,119,119,none,True,0,23,traffic-light-mouselab,8,348115,4,0,0,23,0,0,30
traffic-light-mouselab,False,3,1,"[6, 6, 6, 7, 7, 7, 8, 8, 8, 9, 9, 9, 5, 5, 5]","[[5, 6, 6, 2, 8], [4, 3, 6, 7, 4], [4, 7, 6, 6, 6]]","[[3, 3, 3, 3, 3], [0, 0, 0, 0, 0], [3, 3, 3, 3, 3]]","[4, 15, 11]",11,12,5,3,0.06,0.055,0.005,"[6, 7, 8, 9, 5]",5,5,3,12030,15,179,164,none,True,2,11,traffic-light-mouselab,9,361610,6,0,0,11,0,0,30
traffic-light-mouselab,False,3,1,"[6, 6, 6, 13]","[[6, 5, 4, 6, 4], [5, 2, 6, 5, 4], [1, 5, 7, 8, 8]]","[[3, 3, 3, 3, 3], [3, 0, 3, 3, 3], [1, 1, 1, 0, 1]]","[1, 1, 28]",28,36,6,3,0.078,0.07666666666666666,0.0013333333333333333,"[6, 13]",2,5,3,4017,4,235,231,none,False,2,28,traffic-light-mouselab,10,366624,8,1,1,28,1,0,30
traffic-light-mouselab,False,3,1,"[10, 10, 10, 11, 11, 11, 12, 12, 12]","[[6, 3, 5, 6, 4], [5, 4, 4, 10, 8], [5, 3, 6, 6, 3]]","[[3, 3, 3, 3, 3], [3, 3, 3, 3, 3], [0, 0, 0, 3, 3]]","[10, 7, 13]",13,6,7,2,0.052,0.048999999999999995,0.003,"[10, 11, 12]",3,5,3,5016,9,156,147,none,True,2,13,traffic-light-mouselab,11,372410,6,1,9,13,3,0,30
traffic-light-mouselab,False,3,1,[],"[[3, 5, 6, 5, 7], [5, 4, 4, 5, 3], [7, 7, 2, 3, 7]]","[[3, 3, 3, 3, 3], [3, 3, 3, 3, 3], [3, 3, 3, 3, 3]]","[2, 27, 1]",1,34,8,3,0.049,0.049,0.0,[],0,5,3,1856,0,148,148,none,True,2,1,traffic-light-mouselab,12,375260,3,0,0,1,0,0,30
traffic-light-mouselab,False,3,1,"[2, 1, 0, 3, 4]","[[5, 5, 6, 9, 4], [3, 5, 2, 3, 6], [3, 4, 8, 1, 4]]","[[0, 0, 0, 0, 0], [3, 3, 3, 3, 3], [3, 3, 3, 3, 3]]","[22, 7, 1]",22,24,9,3,0.073,0.07133333333333333,0.0016666666666666668,"[2, 1, 0, 3, 4]",5,5,3,3180,5,220,215,none,False,0,22,traffic-light-mouselab,13,379621,9,1,5,22,5,0,30
traffic-light-mouselab,False,3,1,"[5, 5, 5]","[[7, 5, 8, 7, 5], [7, 5, 9, 3, 5], [8, 3, 8, 5, 7]]","[[3, 3, 3, 3, 3], [0, 3, 3, 3, 3], [3, 3, 3, 3, 3]]","[1, 21, 8]",21,22,10,0,0.073,0.072,0.001,[5],1,5,3,3458,3,218,215,none,True,1,21,traffic-light-mouselab,14,384803,7,0,3,21,1,0,30
traffic-light-mouselab,False,3,1,"[5, 6, 7, 8, 9]","[[7, 9, 6, 7, 3], [5, 7, 4, 7, 5], [4, 7, 5, 6, 9]]","[[3, 3, 3, 3, 3], [0, 0, 0, 0, 0], [3, 3, 3, 3, 3]]","[4, 20, 6]",20,20,11,1,0.073,0.07133333333333333,0.0016666666666666668,"[5, 6, 7, 8, 9]",5,5,3,4173,5,218,213,none,False,1,20,traffic-light-mouselab,15,389779,7,1,5,20,5,0,30
traffic-light-mouselab,False,3,1,"[10, 12, 14, 13, 11]","[[6, 7, 5, 5, 5], [10, 9, 5, 7, 4], [1, 3, 2, 3, 5]]","[[3, 3, 3, 3, 3], [3, 3, 3, 3, 3], [0, 0, 0, 0, 0]]","[6, 22, 2]",2,24,12,4,0.043,0.04133333333333333,0.0016666666666666668,"[10, 12, 14, 13, 11]",5,5,3,4574,5,128,123,none,False,2,2,traffic-light-mouselab,16,395150,5,1,5,2,5,0,30
traffic-light-mouselab,False,3,1,"[2, 2, 2, 4, 4, 4, 1, 1, 1]","[[5, 7, 3, 3, 3], [7, 6, 8, 5, 4], [5, 6, 3, 5, 4]]","[[3, 0, 0, 3, 0], [1, 1, 1, 1, 1], [3, 3, 3, 3, 3]]","[21, 8, 1]",8,22,13,1,0.067,0.064,0.003,"[2, 4, 1]",3,5,3,4610,9,201,192,none,False,1,8,traffic-light-mouselab,17,401090,6,0,0,8,0,0,30
traffic-light-mouselab,False,3,1,"[10, 12, 14]","[[3, 4, 8, 4, 7], [4, 6, 4, 3, 6], [6, 5, 5, 7, 5]]","[[3, 3, 3, 3, 3], [3, 3, 3, 3, 3], [0, 1, 0, 1, 0]]","[7, 7, 16]",16,12,14,0,0.048,0.047,0.001,"[10, 12, 14]",3,5,3,2995,3,145,142,none,False,2,16,traffic-light-mouselab,18,404943,6,0,3,16,3,0,30
traffic-light-mouselab,False,3,1,"[10, 10, 6, 6, 6, 8, 8, 8, 9, 9, 9, 5, 5, 5]","[[8, 3, 6, 4, 7], [8, 4, 6, 5, 2], [9, 6, 4, 4, 5]]","[[3, 3, 3, 3, 3], [0, 0, 3, 0, 0], [1, 3, 3, 3, 3]]","[11, 12, 7]",7,6,15,0,0.082,0.07733333333333334,0.004666666666666667,"[6, 8, 9, 5]",4,5,3,6450,14,247,233,none,True,2,7,traffic-light-mouselab,19,412687,9,1,2,7,0,0,30
traffic-light-mouselab,False,3,1,"[12, 12, 12, 14, 14, 14, 10, 10, 10]","[[4, 7, 5, 4, 3], [6, 6, 5, 7, 6], [5, 4, 4, 5, 5]]","[[3, 3, 3, 3, 3], [3, 3, 3, 3, 3], [0, 3, 0, 3, 0]]","[10, 3, 17]",3,14,16,4,0.044,0.040999999999999995,0.003,"[12, 14, 10]",3,5,3,6336,9,133,124,none,True,1,3,traffic-light-mouselab,20,419842,6,0,0,3,0,0,30
traffic-light-mouselab,False,3,1,"[5, 5, 5, 7, 7, 7, 9, 9, 9]","[[6, 7, 4, 5, 4], [6, 6, 4, 5, 8], [7, 6, 3, 7, 7]]","[[3, 3, 3, 3, 3], [0, 3, 0, 3, 0], [3, 3, 3, 3, 3]]","[7, 19, 4]",19,18,17,4,0.069,0.066,0.003,"[5, 7, 9]",3,5,3,5282,9,208,199,none,True,1,19,traffic-light-mouselab,21,425944,8,1,9,19,3,0,30
traffic-light-mouselab,False,3,1,"[5, 11, 11, 11, 13, 13, 13]","[[5, 5, 8, 7, 5], [1, 5, 7, 7, 3], [1, 7, 5, 4, 1]]","[[3, 3, 3, 3, 3], [0, 1, 1, 1, 1], [3, 0, 3, 0, 3]]","[8, 6, 16]",6,12,18,1,0.061,0.058666666666666666,0.0023333333333333335,"[5, 11, 13]",3,5,3,3478,7,182,175,none,False,1,6,traffic-light-mouselab,22,430080,5,0,1,6,1,0,30
traffic-light-mouselab,False,3,1,"[5, 5, 5, 7, 7, 7]","[[5, 6, 6, 5, 4], [3, 3, 8, 5, 4], [7, 4, 1, 5, 9]]","[[3, 3, 3, 3, 3], [0, 3, 0, 3, 3], [3, 3, 3, 3, 3]]","[1, 25, 4]",25,30,19,2,0.07,0.068,0.002,"[5, 7]",2,5,3,3232,6,210,204,none,True,1,25,traffic-light-mouselab,23,434127,8,1,6,25,2,0,30
traffic-light-mouselab,False,3,1,"[5, 5, 5, 7, 7, 7, 9, 9, 9]","[[7, 6, 8, 7, 4], [5, 4, 4, 3, 8], [5, 7, 4, 4, 8]]","[[3, 3, 3, 3, 3], [0, 3, 0, 3, 0], [3, 3, 3, 3, 3]]","[2, 27, 1]",27,34,20,4,0.077,0.074,0.003,"[5, 7, 9]",3,5,3,3950,9,232,223,none,True,1,27,traffic-light-mouselab,24,439598,8,1,9,27,3,0,30
traffic-light-mouselab,False,3,1,"[0, 2, 4]","[[4, 3, 1, 5, 7], [4, 6, 6, 5, 4], [7, 5, 7, 8, 5]]","[[0, 1, 0, 1, 0], [3, 3, 3, 3, 3], [3, 3, 3, 3, 3]]","[18, 7, 5]",18,16,21,4,0.06,0.059,0.001,"[0, 2, 4]",3,5,3,2834,3,179,176,none,False,0,18,traffic-light-mouselab,25,443567,7,1,3,18,3,0,30
traffic-light-mouselab,False,3,1,"[6, 6, 6]","[[7, 4, 8, 4, 5], [4, 6, 5, 4, 7], [4, 3, 3, 3, 2]]","[[3, 3, 3, 3, 3], [3, 0, 3, 3, 3], [1, 1, 1, 1, 1]]","[3, 17, 10]",10,14,22,1,0.048,0.047,0.001,[6],1,5,3,2826,3,144,141,none,False,2,10,traffic-light-mouselab,26,447126,3,0,0,10,0,0,30
traffic-light-mouselab,False,3,1,[2],"[[4, 5, 7, 4, 4], [7, 5, 4, 5, 4], [6, 3, 7, 7, 5]]","[[1, 1, 0, 1, 1], [3, 3, 3, 3, 3], [3, 3, 3, 3, 3]]","[12, 3, 15]",12,14,23,2,0.067,0.06666666666666667,0.0003333333333333333,[2],1,5,3,2467,1,201,200,none,False,0,12,traffic-light-mouselab,27,451005,7,1,1,12,1,0,30
traffic-light-mouselab,False,3,1,"[5, 5, 5]","[[5, 5, 6, 4, 5], [8, 6, 4, 5, 5], [6, 5, 4, 5, 5]]","[[3, 3, 3, 3, 3], [0, 3, 3, 3, 3], [3, 3, 3, 3, 3]]","[5, 23, 2]",5,26,24,0,0.074,0.073,0.001,[5],1,5,3,2188,3,221,218,none,True,0,5,traffic-light-mouselab,28,453987,5,0,0,5,0,0,30
traffic-light-mouselab,False,3,1,"[2, 2, 2, 0, 0, 0, 1, 1, 1, 4, 4, 4]","[[5, 3, 0, 4, 6], [4, 3, 4, 5, 3], [4, 5, 3, 6, 6]]","[[0, 0, 0, 3, 0], [3, 3, 3, 3, 3], [1, 1, 1, 1, 1]]","[23, 3, 4]",4,26,25,3,0.044,0.039999999999999994,0.004,"[2, 0, 1, 4]",4,5,3,5736,12,131,119,none,False,2,4,traffic-light-mouselab,29,460669,6,1,0,4,0,0,30
traffic-light-mouselab,False,3,1,"[5, 6, 7, 8, 9]","[[4, 3, 4, 6, 8], [6, 6, 4, 7, 7], [5, 4, 4, 5, 9]]","[[3, 3, 3, 3, 3], [0, 0, 0, 0, 0], [3, 3, 3, 3, 3]]","[3, 26, 1]",26,32,26,3,0.068,0.06633333333333334,0.0016666666666666668,"[5, 6, 7, 8, 9]",5,5,3,4257,5,205,200,none,False,1,26,traffic-light-mouselab,30,466871,7,1,5,26,5,0,30
traffic-light-mouselab,False,3,1,"[5, 5, 5, 7, 7, 7]","[[3, 4, 4, 4, 5], [4, 5, 7, 5, 5], [4, 7, 4, 2, 6]]","[[3, 3, 3, 3, 3], [0, 3, 0, 3, 3], [3, 3, 3, 3, 3]]","[5, 17, 8]",17,14,27,2,0.057,0.055,0.002,"[5, 7]",2,5,3,3567,6,171,165,none,True,1,17,traffic-light-mouselab,31,471315,7,1,6,17,2,0,30
traffic-light-mouselab,False,3,1,[10],"[[8, 5, 7, 4, 3], [0, 0, 7, 5, 3], [10, 4, 5, 5, 6]]","[[3, 3, 3, 3, 3], [3, 3, 3, 3, 3], [0, 1, 1, 1, 1]]","[2, 14, 14]",14,16,28,0,0.052,0.051666666666666666,0.0003333333333333333,[10],1,5,3,2112,1,156,155,none,False,2,14,traffic-light-mouselab,32,474158,10,1,1,14,1,0,30
traffic-light-mouselab,False,3,1,[0],"[[2, 6, 8, 7, 4], [6, 4, 5, 3, 7], [4, 5, 4, 4, 4]]","[[2, 3, 3, 3, 3], [3, 3, 3, 3, 3], [3, 3, 3, 3, 3]]","[15, 13, 2]",15,16,29,0,0.039,0.03866666666666667,0.0003333333333333333,[],0,5,3,2623,1,116,115,none,True,0,15,traffic-light-mouselab,33,477556,2,0,1,15,0,0,30
traffic-light-mouselab,False,3,1,"[6, 6, 6, 8, 8, 8]","[[2, 4, 3, 5, 6], [4, 5, 3, 6, 3], [6, 4, 6, 4, 7]]","[[3, 3, 3, 3, 3], [3, 0, 3, 0, 3], [3, 3, 3, 3, 3]]","[6, 15, 9]",9,10,30,3,0.052,0.049999999999999996,0.002,"[6, 8]",2,5,3,3306,6,156,150,none,True,2,9,traffic-light-mouselab,34,481665,4,0,0,9,0,0,30
traffic-light-mouselab,True,3,1,"[8, 8, 8, 7, 7, 7, 2, 2, 2]","[[3, 7, 4, 4, 5], [8, 7, 5, 2, 8], [5, 7, 6, 4, 5]]","[[3, 3, 0, 3, 3], [3, 3, 0, 0, 3], [3, 3, 3, 3, 3]]","[7, 22, 1]",22,24,1,2,0.048,0.045,0.003,"[8, 7, 2]",3,5,3,11526,9,144,135,none,True,1,22,traffic-light-mouselab,4,159052,5,0,6,22,2,1,30
traffic-light-mouselab,True,3,1,"[14, 12, 13, 9, 9, 9]","[[4, 6, 5, 3, 5], [4, 2, 9, 5, 6], [3, 3, 4, 4, 7]]","[[3, 3, 3, 3, 3], [3, 3, 3, 3, 0], [1, 1, 0, 0, 0]]","[2, 17, 11]",11,16,2,4,0.063,0.061,0.002,"[14, 12, 13, 9]",4,5,3,6931,6,189,183,none,False,2,11,traffic-light-mouselab,5,169274,7,1,3,11,3,1,30
traffic-light-mouselab,False,3,1,[8],"[[5, 6, 6, 2, 8], [6, 5, 4, 9, 4], [5, 5, 5, 7, 6]]","[[3, 3, 3, 3, 3], [1, 1, 1, 0, 1], [3, 3, 3, 3, 3]]","[14, 8, 8]",8,8,3,3,0.052,0.051666666666666666,0.0003333333333333333,[8],1,5,3,4488,1,156,155,none,False,1,8,traffic-light-mouselab,7,180233,9,1,1,8,1,1,30
traffic-light-mouselab,False,3,1,"[4, 4, 4, 3, 3, 3, 13, 13, 13]","[[5, 2, 6, 6, 3], [4, 4, 3, 7, 6], [6, 3, 5, 6, 6]]","[[3, 3, 3, 0, 0], [3, 3, 3, 3, 3], [3, 3, 3, 0, 3]]","[16, 1, 13]",13,18,4,3,0.06,0.056999999999999995,0.003,"[4, 3, 13]",3,5,3,9194,9,181,172,none,True,2,13,traffic-light-mouselab,8,193939,6,1,3,13,1,1,30
traffic-light-mouselab,False,3,1,"[9, 7, 12, 12, 12]","[[4, 8, 5, 5, 2], [5, 5, 6, 7, 4], [5, 4, 6, 3, 5]]","[[3, 3, 3, 3, 3], [1, 1, 0, 1, 0], [3, 3, 0, 3, 3]]","[4, 12, 14]",12,12,5,2,0.059,0.05733333333333333,0.0016666666666666668,"[9, 7, 12]",3,5,3,8137,5,176,171,none,False,1,12,traffic-light-mouselab,9,203414,6,0,2,12,2,1,30
traffic-light-mouselab,False,3,1,"[3, 3, 3]","[[5, 4, 3, 6, 8], [3, 7, 4, 7, 7], [5, 5, 7, 4, 4]]","[[3, 3, 3, 0, 3], [3, 3, 3, 3, 3], [3, 3, 3, 3, 3]]","[16, 3, 11]",11,14,6,3,0.054,0.053,0.001,[3],1,5,3,4187,3,161,158,none,True,2,11,traffic-light-mouselab,10,210079,4,0,0,11,0,1,30
traffic-light-mouselab,False,3,1,"[9, 9, 9, 14]","[[5, 6, 5, 7, 3], [4, 3, 6, 6, 4], [3, 6, 3, 4, 7]]","[[3, 3, 3, 3, 3], [3, 3, 3, 3, 0], [1, 1, 1, 1, 0]]","[6, 8, 16]",16,12,7,4,0.054,0.05266666666666667,0.0013333333333333333,"[9, 14]",2,5,3,6850,4,162,158,none,False,2,16,traffic-light-mouselab,11,218003,7,1,1,16,1,1,30
traffic-light-mouselab,False,3,1,"[7, 7, 7, 12, 12, 12]","[[4, 7, 4, 5, 5], [5, 5, 6, 6, 3], [5, 5, 7, 6, 4]]","[[3, 3, 3, 3, 3], [3, 3, 0, 3, 3], [3, 3, 0, 3, 3]]","[3, 15, 12]",3,14,8,2,0.062,0.06,0.002,"[7, 12]",2,5,3,5884,6,186,180,none,True,0,3,traffic-light-mouselab,12,224985,4,0,0,3,0,1,30
traffic-light-mouselab,False,3,1,"[3, 2, 1, 0, 4]","[[4, 3, 4, 3, 5], [2, 5, 7, 5, 4], [5, 4, 8, 4, 6]]","[[0, 0, 0, 0, 0], [3, 3, 3, 3, 3], [3, 3, 3, 3, 3]]","[4, 13, 13]",4,12,9,4,0.05,0.04833333333333334,0.0016666666666666668,"[3, 2, 1, 0, 4]",5,5,3,7581,5,150,145,none,False,0,4,traffic-light-mouselab,13,233792,5,1,5,4,5,1,30
traffic-light-mouselab,False,3,1,"[14, 13, 12, 11, 10]","[[6, 6, 7, 7, 5], [6, 4, 3, 5, 4], [3, 6, 4, 7, 8]]","[[3, 3, 3, 3, 3], [3, 3, 3, 3, 3], [0, 0, 0, 0, 0]]","[5, 1, 24]",24,28,10,4,0.074,0.07233333333333333,0.0016666666666666668,"[14, 13, 12, 11, 10]",5,5,3,5032,5,221,216,none,False,2,24,traffic-light-mouselab,14,239772,8,1,5,24,5,1,30
traffic-light-mouselab,False,3,1,"[8, 8, 8, 6, 6, 6]","[[6, 6, 2, 3, 2], [4, 3, 6, 5, 5], [5, 5, 2, 8, 6]]","[[3, 3, 3, 3, 3], [3, 0, 3, 0, 3], [3, 3, 3, 3, 3]]","[1, 21, 8]",1,22,11,3,0.057,0.055,0.002,"[8, 6]",2,5,3,5255,6,172,166,none,True,0,1,traffic-light-mouselab,15,246498,3,0,0,1,0,1,30
traffic-light-mouselab,False,3,1,"[13, 13, 13, 11, 11, 11]","[[5, 4, 5, 6, 5], [5, 5, 3, 9, 7], [4, 6, 7, 5, 5]]","[[1, 1, 1, 1, 1], [3, 3, 3, 3, 3], [3, 0, 3, 0, 3]]","[2, 12, 16]",2,16,12,1,0.055,0.053,0.002,"[13, 11]",2,5,3,4261,6,164,158,none,False,0,2,traffic-light-mouselab,16,251665,4,0,0,2,0,1,30
traffic-light-mouselab,False,3,1,[4],"[[7, 4, 5, 6, 8], [7, 6, 5, 7, 3], [3, 6, 4, 5, 5]]","[[1, 1, 1, 1, 0], [3, 3, 3, 3, 3], [3, 3, 3, 3, 3]]","[10, 12, 8]",10,4,13,4,0.052,0.051666666666666666,0.0003333333333333333,[4],1,5,3,2611,1,156,155,none,False,0,10,traffic-light-mouselab,17,255377,8,1,1,10,1,1,30
traffic-light-mouselab,False,3,1,"[7, 7, 7]","[[7, 6, 6, 3, 5], [6, 7, 6, 5, 5], [4, 7, 6, 9, 5]]","[[3, 3, 3, 3, 3], [3, 3, 0, 3, 3], [3, 3, 3, 3, 3]]","[9, 18, 3]",9,16,14,2,0.06,0.059,0.001,[7],1,5,3,2880,3,180,177,none,True,0,9,traffic-light-mouselab,18,259226,6,0,0,9,0,1,30
traffic-light-mouselab,False,3,1,"[8, 8, 8, 7, 7, 7, 6, 6, 6]","[[6, 6, 7, 4, 5], [8, 5, 5, 3, 7], [3, 5, 6, 5, 5]]","[[3, 3, 3, 3, 3], [3, 0, 0, 0, 3], [3, 3, 3, 3, 3]]","[3, 25, 2]",25,30,15,4,0.067,0.064,0.003,"[8, 7, 6]",3,5,3,5059,9,200,191,none,True,1,25,traffic-light-mouselab,19,265529,7,0,9,25,3,1,30
traffic-light-mouselab,False,3,1,"[9, 9, 9]","[[5, 3, 6, 6, 4], [6, 6, 4, 7, 9], [4, 6, 5, 3, 8]]","[[3, 3, 3, 3, 3], [3, 3, 3, 3, 0], [3, 3, 3, 3, 3]]","[1, 27, 2]",27,34,16,4,0.088,0.087,0.001,[9],1,5,3,4763,3,263,260,none,True,1,27,traffic-light-mouselab,20,271488,9,1,3,27,1,1,30
traffic-light-mouselab,False,3,1,"[3, 3, 3, 1, 1, 1, 0, 0, 0]","[[3, 5, 2, 4, 5], [5, 5, 4, 6, 4], [4, 5, 3, 5, 5]]","[[0, 0, 3, 0, 3], [3, 3, 3, 3, 3], [3, 3, 3, 3, 3]]","[21, 1, 8]",21,22,17,2,0.023,0.02,0.003,"[3, 1, 0]",3,5,3,5788,9,70,61,none,True,0,21,traffic-light-mouselab,21,278384,2,0,9,21,3,1,30
traffic-light-mouselab,False,3,1,"[8, 7, 6]","[[7, 5, 4, 6, 5], [5, 6, 5, 4, 5], [7, 6, 5, 4, 3]]","[[3, 3, 3, 3, 3], [1, 0, 0, 0, 1], [3, 3, 3, 3, 3]]","[10, 18, 2]",18,16,18,1,0.057,0.056,0.001,"[8, 7, 6]",3,5,3,4052,3,170,167,none,False,1,18,traffic-light-mouselab,22,283317,6,1,3,18,3,1,30
traffic-light-mouselab,False,3,1,"[12, 12, 12]","[[4, 4, 5, 9, 6], [7, 3, 8, 3, 7], [6, 6, 6, 4, 2]]","[[3, 3, 3, 3, 3], [3, 3, 3, 3, 3], [3, 3, 0, 3, 3]]","[1, 7, 22]",7,24,19,2,0.064,0.063,0.001,[12],1,5,3,2580,3,193,190,none,True,1,7,traffic-light-mouselab,23,287135,8,1,0,7,0,1,30
traffic-light-mouselab,False,3,1,"[9, 7, 5]","[[4, 6, 7, 4, 3], [8, 5, 6, 3, 6], [7, 5, 4, 4, 4]]","[[3, 3, 3, 3, 3], [0, 1, 0, 1, 0], [3, 3, 3, 3, 3]]","[6, 22, 2]",22,24,20,0,0.071,0.06999999999999999,0.001,"[9, 7, 5]",3,5,3,3994,3,214,211,none,False,1,22,traffic-light-mouselab,24,292451,8,1,3,22,3,1,30
traffic-light-mouselab,False,3,1,"[0, 3, 2, 4]","[[3, 6, 4, 6, 7], [9, 7, 1, 4, 6], [5, 3, 5, 6, 8]]","[[0, 1, 0, 0, 0], [3, 3, 3, 3, 3], [3, 3, 3, 3, 3]]","[26, 3, 1]",26,32,21,4,0.069,0.06766666666666667,0.0013333333333333333,"[0, 3, 2, 4]",4,5,3,4197,4,208,204,none,False,0,26,traffic-light-mouselab,25,297596,7,1,4,26,4,1,30
traffic-light-mouselab,False,3,1,"[13, 13, 13]","[[6, 2, 5, 6, 9], [6, 6, 5, 3, 3], [5, 6, 7, 6, 4]]","[[3, 3, 3, 3, 3], [3, 3, 3, 3, 3], [3, 3, 3, 0, 3]]","[1, 5, 24]",5,28,22,3,0.055,0.054,0.001,[13],1,5,3,2712,3,165,162,none,True,1,5,traffic-light-mouselab,26,301811,3,0,0,5,0,1,30
traffic-light-mouselab,False,3,1,"[11, 13, 14, 12, 10]","[[6, 6, 6, 9, 9], [6, 3, 5, 8, 3], [7, 4, 5, 6, 4]]","[[3, 3, 3, 3, 3], [3, 3, 3, 3, 3], [0, 0, 0, 0, 0]]","[6, 4, 20]",20,20,23,0,0.067,0.06533333333333334,0.0016666666666666668,"[11, 13, 14, 12, 10]",5,5,3,4426,5,200,195,none,False,2,20,traffic-light-mouselab,27,306943,7,1,5,20,5,1,30
traffic-light-mouselab,False,3,1,"[3, 3, 3, 2, 2, 2]","[[5, 6, 5, 3, 3], [4, 3, 4, 6, 8], [3, 7, 4, 4, 6]]","[[3, 3, 0, 0, 3], [3, 3, 3, 3, 3], [3, 3, 3, 3, 3]]","[15, 13, 2]",15,16,24,2,0.045,0.043,0.002,"[3, 2]",2,5,3,10813,6,135,129,none,True,0,15,traffic-light-mouselab,28,319487,5,0,6,15,2,1,30
traffic-light-mouselab,False,3,1,"[1, 1, 1, 3, 3, 3]","[[2, 5, 4, 7, 6], [7, 4, 5, 2, 2], [5, 3, 5, 5, 4]]","[[3, 0, 3, 0, 3], [3, 3, 3, 3, 3], [1, 1, 1, 1, 1]]","[14, 10, 6]",6,8,25,3,0.049,0.047,0.002,"[1, 3]",2,5,3,4596,6,148,142,none,False,2,6,traffic-light-mouselab,29,325508,5,1,0,6,0,1,30
traffic-light-mouselab,False,3,1,"[3, 0, 1, 2, 4]","[[5, 4, 6, 4, 5], [5, 8, 7, 4, 5], [8, 3, 6, 5, 7]]","[[0, 0, 0, 0, 0], [3, 3, 3, 3, 3], [3, 3, 3, 3, 3]]","[28, 1, 1]",28,36,26,2,0.06,0.058333333333333334,0.0016666666666666668,"[3, 0, 1, 2, 4]",5,5,3,5201,5,181,176,none,False,0,28,traffic-light-mouselab,30,331730,6,1,5,28,5,1,30
traffic-light-mouselab,False,3,1,[7],"[[4, 5, 6, 3, 5], [2, 6, 9, 7, 4], [5, 4, 7, 8, 5]]","[[3, 3, 3, 3, 3], [1, 1, 0, 1, 1], [3, 3, 3, 3, 3]]","[12, 14, 4]",14,12,27,2,0.075,0.07466666666666666,0.0003333333333333333,[7],1,5,3,2792,1,226,225,none,False,1,14,traffic-light-mouselab,31,335395,9,1,1,14,1,1,30
traffic-light-mouselab,False,3,1,"[9, 9, 9]","[[6, 5, 4, 6, 3], [6, 3, 7, 4, 8], [4, 4, 5, 5, 6]]","[[3, 3, 3, 3, 3], [3, 3, 3, 3, 0], [3, 3, 3, 3, 3]]","[3, 23, 4]",23,26,28,4,0.072,0.071,0.001,[9],1,5,3,2825,3,217,214,none,True,1,23,traffic-light-mouselab,32,339154,8,1,3,23,1,1,30
traffic-light-mouselab,False,3,1,"[6, 6, 6]","[[5, 7, 5, 7, 6], [3, 6, 5, 6, 3], [2, 3, 5, 2, 4]]","[[3, 3, 3, 3, 3], [3, 0, 3, 3, 3], [3, 3, 3, 3, 3]]","[4, 19, 7]",19,18,29,1,0.054,0.053,0.001,[6],1,5,3,2794,3,163,160,none,True,1,19,traffic-light-mouselab,33,343003,6,1,3,19,1,1,30
traffic-light-mouselab,False,3,1,"[14, 14, 14, 12, 12, 12]","[[8, 6, 6, 6, 5], [7, 5, 6, 5, 4], [4, 6, 5, 7, 4]]","[[3, 3, 3, 3, 3], [3, 3, 3, 3, 3], [3, 3, 0, 3, 0]]","[2, 11, 17]",17,16,30,2,0.054,0.052,0.002,"[14, 12]",2,5,3,5218,6,163,157,none,True,2,17,traffic-light-mouselab,34,349771,5,0,6,17,2,1,30
traffic-light-mouselab,True,3,1,"[5, 5, 5, 6, 6, 6, 7, 7, 7, 8, 8, 8, 9, 9, 9]","[[5, 5, 4, 8, 3], [4, 5, 3, 6, 5], [3, 2, 8, 6, 5]]","[[1, 1, 1, 1, 1], [0, 0, 0, 0, 0], [3, 3, 3, 3, 3]]","[7, 15, 8]",7,10,1,3,0.065,0.060000000000000005,0.005,"[5, 6, 7, 8, 9]",5,5,3,35090,15,194,179,none,False,0,7,traffic-light-mouselab,4,420565,8,1,0,7,0,2,30
traffic-light-mouselab,True,3,1,"[12, 12, 12, 10, 10, 10]","[[4, 6, 0, 8, 4], [5, 6, 2, 6, 6], [6, 4, 3, 4, 4]]","[[3, 3, 3, 3, 3], [3, 3, 3, 3, 3], [0, 3, 0, 3, 3]]","[7, 8, 15]",8,10,2,0,0.053,0.051,0.002,"[12, 10]",2,5,3,13075,6,158,152,none,True,1,8,traffic-light-mouselab,5,441891,5,0,0,8,0,2,30
traffic-light-mouselab,False,3,1,[],"[[5, 5, 7, 7, 6], [7, 4, 5, 7, 3], [5, 3, 6, 5, 5]]","[[3, 3, 3, 3, 3], [3, 3, 3, 3, 3], [3, 3, 3, 3, 3]]","[10, 14, 6]",6,8,3,3,0.066,0.066,0.0,[],0,5,3,5524,0,198,198,none,True,2,6,traffic-light-mouselab,7,465357,5,0,0,6,0,2,30
traffic-light-mouselab,False,3,1,"[7, 5, 6, 8, 9]","[[4, 4, 6, 7, 5], [7, 9, 7, 5, 5], [5, 6, 5, 5, 6]]","[[3, 3, 3, 3, 3], [0, 0, 0, 0, 0], [3, 3, 3, 3, 3]]","[2, 27, 1]",27,34,4,1,0.086,0.08433333333333333,0.0016666666666666668,"[7, 5, 6, 8, 9]",5,5,3,21761,5,257,252,none,False,1,27,traffic-light-mouselab,8,494904,9,1,5,27,5,2,30
traffic-light-mouselab,False,3,1,"[5, 7, 9, 6, 8]","[[3, 3, 10, 3, 5], [6, 8, 5, 5, 5], [4, 4, 4, 5, 7]]","[[3, 3, 3, 3, 3], [0, 0, 0, 0, 0], [3, 3, 3, 3, 3]]","[3, 23, 4]",23,26,5,1,0.07,0.06833333333333334,0.0016666666666666668,"[5, 7, 9, 6, 8]",5,5,3,19200,5,209,204,none,False,1,23,traffic-light-mouselab,9,515951,8,1,5,23,5,2,30
traffic-light-mouselab,False,3,1,"[14, 14, 14]","[[3, 3, 5, 5, 6], [1, 8, 7, 4, 8], [5, 4, 4, 5, 8]]","[[3, 3, 3, 3, 3], [3, 3, 3, 3, 3], [3, 3, 3, 3, 0]]","[1, 5, 24]",24,28,6,4,0.079,0.078,0.001,[14],1,5,3,8265,3,238,235,none,True,2,24,traffic-light-mouselab,10,528475,8,1,3,24,1,2,30
traffic-light-mouselab,False,3,1,"[10, 12, 14, 11, 13]","[[8, 5, 7, 8, 6], [7, 6, 4, 4, 6], [8, 2, 8, 5, 5]]","[[3, 3, 3, 3, 3], [3, 3, 3, 3, 3], [0, 0, 0, 0, 0]]","[8, 5, 17]",17,14,7,0,0.078,0.07633333333333334,0.0016666666666666668,"[10, 12, 14, 11, 13]",5,5,3,14977,5,235,230,none,False,2,17,traffic-light-mouselab,11,545443,8,1,5,17,5,2,30
traffic-light-mouselab,False,3,1,"[6, 6, 6, 9, 9, 9, 7, 7, 7, 8, 8, 8, 5, 5, 5]","[[4, 2, 8, 5, 4], [2, 3, 5, 6, 6], [3, 8, 6, 3, 5]]","[[3, 3, 3, 3, 3], [0, 0, 0, 0, 0], [1, 1, 1, 1, 1]]","[5, 18, 7]",7,16,8,4,0.054,0.049,0.005,"[6, 9, 7, 8, 5]",5,5,3,27585,15,163,148,none,False,2,7,traffic-light-mouselab,12,576381,5,0,0,7,0,2,30
traffic-light-mouselab,False,3,1,"[2, 2, 2, 4, 4, 4, 0, 0, 0]","[[4, 5, 5, 3, 6], [1, 5, 5, 3, 6], [4, 6, 5, 7, 3]]","[[0, 3, 0, 3, 0], [3, 3, 3, 3, 3], [3, 3, 3, 3, 3]]","[16, 5, 9]",16,12,9,4,0.051,0.047999999999999994,0.003,"[2, 4, 0]",3,5,3,8940,9,153,144,none,True,0,16,traffic-light-mouselab,13,586931,6,1,9,16,3,2,30
traffic-light-mouselab,False,3,1,"[10, 12, 14]","[[3, 5, 7, 5, 5], [5, 5, 5, 3, 3], [5, 3, 5, 6, 7]]","[[3, 3, 3, 3, 3], [3, 3, 3, 3, 3], [0, 1, 0, 1, 0]]","[9, 12, 9]",9,4,10,4,0.048,0.047,0.001,"[10, 12, 14]",3,5,3,7737,3,144,141,none,False,2,9,traffic-light-mouselab,14,596559,7,1,3,9,3,2,30
traffic-light-mouselab,False,3,1,"[7, 7, 7, 5, 5, 5, 9, 9, 9, 6, 6, 6, 8, 8, 8]","[[3, 3, 7, 6, 8], [4, 3, 4, 6, 5], [7, 6, 2, 6, 9]]","[[1, 1, 1, 1, 1], [0, 0, 0, 0, 0], [3, 3, 3, 3, 3]]","[1, 23, 6]",1,26,11,3,0.06,0.055,0.005,"[7, 5, 9, 6, 8]",5,5,3,10383,15,180,165,none,False,0,1,traffic-light-mouselab,15,608975,6,0,0,1,0,2,30
traffic-light-mouselab,False,3,1,"[2, 2, 2, 7, 7, 7]","[[6, 4, 8, 3, 4], [6, 3, 7, 5, 3], [4, 5, 5, 5, 4]]","[[3, 3, 0, 3, 3], [3, 3, 0, 3, 3], [3, 3, 3, 3, 3]]","[12, 10, 8]",12,4,12,2,0.069,0.067,0.002,"[2, 7]",2,5,3,8583,6,206,200,none,True,0,12,traffic-light-mouselab,16,619299,8,1,3,12,1,2,30
traffic-light-mouselab,False,3,1,"[3, 3, 3, 1, 1, 1, 2, 2, 2]","[[7, 4, 5, 3, 4], [8, 4, 3, 4, 5], [6, 7, 5, 7, 5]]","[[3, 0, 0, 0, 3], [3, 3, 3, 3, 3], [1, 1, 1, 1, 1]]","[16, 9, 5]",5,12,13,2,0.044,0.040999999999999995,0.003,"[3, 1, 2]",3,5,3,10575,9,132,123,none,False,2,5,traffic-light-mouselab,17,632176,5,0,0,5,0,2,30
traffic-light-mouselab,False,3,1,"[12, 12, 12, 10, 10, 10, 11, 11, 11, 13, 13, 13, 14, 14, 14]","[[4, 5, 4, 7, 8], [1, 4, 4, 3, 1], [4, 4, 4, 3, 3]]","[[3, 3, 3, 3, 3], [3, 3, 3, 3, 3], [0, 0, 0, 0, 0]]","[3, 1, 26]",26,32,14,1,0.041,0.036000000000000004,0.005,"[12, 10, 11, 13, 14]",5,5,3,12971,15,123,108,none,True,2,26,traffic-light-mouselab,18,646431,4,1,15,26,5,2,30
traffic-light-mouselab,False,3,1,"[8, 8, 8, 5, 5, 5]","[[6, 4, 5, 1, 6], [9, 4, 4, 5, 5], [7, 2, 7, 3, 7]]","[[3, 3, 3, 3, 3], [0, 3, 3, 0, 3], [3, 3, 3, 3, 3]]","[4, 18, 8]",18,16,15,0,0.081,0.079,0.002,"[8, 5]",2,5,3,7488,6,242,236,none,True,1,18,traffic-light-mouselab,19,656222,9,1,6,18,2,2,30
traffic-light-mouselab,False,3,1,"[5, 6, 7, 8, 9]","[[7, 6, 2, 4, 5], [4, 5, 5, 4, 5], [4, 2, 6, 3, 8]]","[[3, 3, 3, 3, 3], [0, 0, 0, 0, 0], [3, 3, 3, 3, 3]]","[1, 21, 8]",21,22,16,2,0.052,0.050333333333333334,0.0016666666666666668,"[5, 6, 7, 8, 9]",5,5,3,9492,5,155,150,none,False,1,21,traffic-light-mouselab,20,669771,5,1,5,21,5,2,30
traffic-light-mouselab,False,3,1,"[0, 2, 4, 1, 3, 11, 11, 11, 13, 13, 13]","[[6, 8, 4, 8, 4], [4, 3, 4, 6, 4], [4, 8, 5, 3, 6]]","[[0, 0, 0, 0, 0], [3, 3, 3, 3, 3], [3, 0, 3, 0, 3]]","[11, 6, 13]",11,8,17,1,0.07,0.06633333333333334,0.0036666666666666666,"[0, 2, 4, 1, 3, 11, 13]",7,5,3,20962,11,210,199,none,False,0,11,traffic-light-mouselab,21,692297,8,1,5,11,5,2,30
traffic-light-mouselab,False,3,1,"[10, 12, 14, 13, 11]","[[4, 7, 6, 6, 8], [4, 4, 6, 6, 4], [3, 6, 3, 6, 4]]","[[3, 3, 3, 3, 3], [3, 3, 3, 3, 3], [0, 0, 0, 0, 0]]","[6, 5, 19]",19,18,18,3,0.06,0.058333333333333334,0.0016666666666666668,"[10, 12, 14, 13, 11]",5,5,3,10468,5,180,175,none,False,2,19,traffic-light-mouselab,22,704275,6,1,5,19,5,2,30
traffic-light-mouselab,False,3,1,"[10, 11, 12, 13, 14]","[[4, 3, 7, 5, 5], [6, 4, 7, 8, 3], [3, 6, 6, 7, 5]]","[[3, 3, 3, 3, 3], [3, 3, 3, 3, 3], [0, 0, 0, 0, 0]]","[5, 10, 15]",15,10,19,3,0.07,0.06833333333333334,0.0016666666666666668,"[10, 11, 12, 13, 14]",5,5,3,5410,5,210,205,none,False,2,15,traffic-light-mouselab,23,711931,7,1,5,15,5,2,30
traffic-light-mouselab,False,3,1,[],"[[3, 6, 7, 5, 3], [6, 5, 6, 5, 6], [4, 3, 9, 6, 3]]","[[3, 3, 3, 3, 3], [3, 3, 3, 3, 3], [3, 3, 3, 3, 3]]","[15, 1, 14]",14,18,20,2,0.079,0.079,0.0,[],0,5,3,9007,0,237,237,none,True,2,14,traffic-light-mouselab,24,723071,9,1,0,14,0,2,30
traffic-light-mouselab,False,3,1,[],"[[3, 5, 4, 5, 7], [6, 4, 5, 6, 5], [6, 2, 5, 4, 7]]","[[3, 3, 3, 3, 3], [3, 3, 3, 3, 3], [3, 3, 3, 3, 3]]","[13, 7, 10]",10,6,21,1,0.038,0.038,0.0,[],0,5,3,1812,0,113,113,none,True,2,10,traffic-light-mouselab,25,727161,2,0,0,10,0,2,30
traffic-light-mouselab,False,3,1,"[5, 6, 7, 8, 9]","[[8, 5, 4, 4, 6], [7, 5, 4, 5, 4], [6, 6, 4, 7, 4]]","[[3, 3, 3, 3, 3], [0, 0, 0, 0, 0], [3, 3, 3, 3, 3]]","[2, 25, 3]",25,30,22,0,0.07,0.06833333333333334,0.0016666666666666668,"[5, 6, 7, 8, 9]",5,5,3,3822,5,209,204,none,False,1,25,traffic-light-mouselab,26,732250,7,1,5,25,5,2,30
traffic-light-mouselab,False,3,1,"[6, 6, 6]","[[4, 3, 3, 4, 3], [4, 7, 8, 6, 5], [5, 4, 2, 7, 6]]","[[3, 3, 3, 3, 3], [3, 0, 3, 3, 3], [3, 3, 3, 3, 3]]","[8, 12, 10]",8,4,23,1,0.049,0.048,0.001,[6],1,5,3,6361,3,148,145,none,True,0,8,traffic-light-mouselab,27,740117,3,0,0,8,0,2,30
traffic-light-mouselab,False,3,1,"[13, 13, 13]","[[6, 7, 6, 5, 4], [4, 7, 8, 5, 6], [2, 4, 4, 7, 3]]","[[3, 3, 3, 3, 3], [3, 3, 3, 3, 3], [3, 3, 3, 0, 3]]","[7, 1, 22]",22,24,24,3,0.065,0.064,0.001,[13],1,5,3,4388,3,194,191,none,True,2,22,traffic-light-mouselab,28,745758,7,1,3,22,1,2,30
traffic-light-mouselab,False,3,1,"[5, 6, 7, 8, 9]","[[4, 6, 4, 8, 6], [2, 7, 4, 5, 4], [5, 4, 3, 5, 6]]","[[3, 3, 3, 3, 3], [0, 0, 0, 0, 0], [3, 3, 3, 3, 3]]","[11, 13, 6]",13,8,25,1,0.06,0.058333333333333334,0.0016666666666666668,"[5, 6, 7, 8, 9]",5,5,3,3607,5,181,176,none,False,1,13,traffic-light-mouselab,29,750880,7,1,5,13,5,2,30
traffic-light-mouselab,False,3,1,"[1, 1, 1]","[[5, 7, 7, 4, 6], [6, 5, 8, 7, 3], [5, 5, 5, 4, 4]]","[[3, 0, 3, 3, 3], [3, 3, 3, 3, 3], [1, 1, 1, 1, 1]]","[18, 9, 3]",3,16,26,1,0.062,0.061,0.001,[1],1,5,3,4946,3,186,183,none,False,2,3,traffic-light-mouselab,30,757039,5,1,0,3,0,2,30
traffic-light-mouselab,False,3,1,"[0, 0, 0, 3, 3, 3, 1, 1, 1, 4, 4, 4, 2, 2, 2]","[[5, 4, 6, 3, 5], [5, 4, 7, 4, 4], [5, 4, 7, 8, 6]]","[[0, 0, 0, 0, 0], [3, 3, 3, 3, 3], [3, 3, 3, 3, 3]]","[25, 1, 4]",4,30,27,2,0.062,0.057,0.005,"[0, 3, 1, 4, 2]",5,5,3,8889,15,185,170,none,True,2,4,traffic-light-mouselab,31,767276,7,0,0,4,0,2,30
traffic-light-mouselab,False,3,1,"[10, 10, 10, 11, 11, 11, 12, 12, 12, 13, 13, 13, 14, 14, 14]","[[5, 6, 3, 7, 5], [6, 1, 10, 0, 7], [6, 3, 8, 3, 4]]","[[3, 3, 3, 3, 3], [3, 3, 3, 3, 3], [0, 0, 0, 0, 0]]","[1, 1, 28]",28,36,28,2,0.079,0.074,0.005,"[10, 11, 12, 13, 14]",5,5,3,12354,15,237,222,none,True,2,28,traffic-light-mouselab,32,781018,8,1,15,28,5,2,30
traffic-light-mouselab,False,3,1,"[5, 5, 5, 7, 7, 7, 6, 6, 6, 9, 9, 9]","[[5, 6, 4, 4, 5], [4, 2, 4, 4, 7], [2, 4, 6, 8, 8]]","[[3, 3, 3, 3, 3], [0, 0, 0, 3, 0], [3, 3, 3, 3, 3]]","[8, 20, 2]",20,20,29,4,0.065,0.061,0.004,"[5, 7, 6, 9]",4,5,3,7608,12,196,184,none,True,1,20,traffic-light-mouselab,33,789886,7,1,12,20,4,2,30
traffic-light-mouselab,False,3,1,"[10, 10, 10, 12, 12, 12, 14, 14, 14, 11, 11, 11, 13, 13, 13]","[[5, 7, 6, 7, 7], [5, 3, 7, 6, 6], [5, 6, 4, 8, 5]]","[[3, 3, 3, 3, 3], [3, 3, 3, 3, 3], [0, 0, 0, 0, 0]]","[2, 7, 21]",2,22,30,3,0.075,0.06999999999999999,0.005,"[10, 12, 14, 11, 13]",5,5,3,7728,15,224,209,none,True,0,2,traffic-light-mouselab,34,798776,7,1,0,2,0,2,30
traffic-light-mouselab,True,3,1,"[0, 0, 0, 9, 9, 9, 12, 12, 12, 5, 5, 5, 3, 3, 3, 11, 11, 11, 4, 4, 4, 1, 1, 1, 13, 13, 13, 7, 7, 7, 10, 10, 10, 2, 2, 2, 14, 14, 14, 8, 8, 8, 6, 6, 6]","[[5, 5, 3, 5, 5], [5, 6, 5, 2, 4], [8, 7, 4, 3, 3]]","[[0, 0, 0, 0, 0], [0, 0, 0, 0, 0], [0, 0, 0, 0, 0]]","[8, 15, 7]",8,10,1,0,0.057,0.042,0.015,"[0, 9, 12, 5, 3, 11, 4, 1, 13, 7, 10, 2, 14, 8, 6]",15,5,3,72113,45,171,126,none,True,0,8,traffic-light-mouselab,4,248143,5,1,15,8,5,3,30
traffic-light-mouselab,True,3,1,"[0, 0, 0, 5, 7, 7, 12, 12, 12, 4, 4, 4, 14, 14, 14]","[[8, 7, 6, 5, 4], [7, 6, 4, 8, 5], [1, 2, 2, 3, 7]]","[[0, 3, 3, 3, 0], [0, 1, 0, 1, 1], [3, 3, 0, 3, 0]]","[8, 7, 15]",7,10,2,0,0.043,0.03833333333333333,0.004666666666666667,"[0, 5, 7, 12, 4, 14]",6,5,3,20154,14,128,114,none,False,1,7,traffic-light-mouselab,5,271907,7,0,3,7,2,3,30
traffic-light-mouselab,False,3,1,"[0, 0, 0, 9, 7, 12, 12, 12, 11, 11, 11, 2, 2, 2, 8, 6, 5]","[[4, 3, 6, 7, 7], [6, 4, 5, 5, 5], [4, 3, 5, 5, 7]]","[[0, 3, 0, 3, 3], [0, 0, 0, 0, 0], [3, 0, 0, 3, 3]]","[1, 2, 27]",2,34,3,3,0.051,0.04533333333333333,0.005666666666666667,"[0, 9, 7, 12, 11, 2, 8, 6, 5]",9,5,3,41847,17,152,135,none,False,1,2,traffic-light-mouselab,7,319201,5,0,5,2,5,3,30
traffic-light-mouselab,False,3,1,"[0, 2, 2, 4, 3, 1, 11, 11, 11, 13, 13, 13]","[[6, 3, 6, 5, 4], [5, 4, 5, 7, 4], [6, 6, 5, 6, 5]]","[[0, 0, 0, 0, 0], [3, 3, 3, 3, 3], [3, 0, 3, 0, 3]]","[20, 6, 4]",20,20,4,3,0.055,0.051333333333333335,0.0036666666666666666,"[0, 2, 4, 3, 1, 11, 13]",7,5,3,18084,11,166,155,none,False,0,20,traffic-light-mouselab,8,340637,5,0,6,20,5,3,30
traffic-light-mouselab,False,3,1,"[10, 10, 10, 4, 4, 4, 0, 0, 0, 2, 2, 2, 12, 12, 12, 6, 6, 6, 8, 8, 8]","[[3, 6, 6, 6, 4], [3, 5, 5, 7, 3], [7, 1, 5, 8, 5]]","[[0, 3, 0, 3, 0], [3, 0, 3, 0, 3], [0, 3, 0, 3, 3]]","[15, 12, 3]",3,14,5,2,0.055,0.048,0.007,"[10, 4, 0, 2, 12, 6, 8]",7,5,3,22478,21,165,144,none,True,2,3,traffic-light-mouselab,9,368165,5,0,6,3,2,3,30
traffic-light-mouselab,False,3,1,"[5, 5, 5, 9, 9, 9]","[[8, 4, 6, 5, 7], [5, 5, 6, 4, 6], [4, 6, 7, 3, 2]]","[[3, 3, 3, 3, 3], [0, 3, 3, 3, 0], [3, 3, 3, 3, 3]]","[20, 9, 1]",9,20,6,4,0.065,0.063,0.002,"[5, 9]",2,5,3,11114,6,196,190,none,True,1,9,traffic-light-mouselab,10,382042,6,1,6,9,2,3,30
traffic-light-mouselab,False,3,1,[],"[[5, 5, 4, 5, 6], [5, 4, 4, 3, 6], [4, 5, 4, 4, 5]]","[[3, 3, 3, 3, 3], [3, 3, 3, 3, 3], [3, 3, 3, 3, 3]]","[2, 21, 7]",21,22,7,1,0.043,0.043,0.0,[],0,5,3,5391,0,129,129,none,True,1,21,traffic-light-mouselab,11,390381,4,0,0,21,0,3,30
traffic-light-mouselab,False,3,1,"[5, 5, 5, 7, 7, 7, 9, 9, 9, 14, 14, 14]","[[5, 7, 4, 5, 6], [3, 5, 5, 4, 5], [4, 4, 6, 6, 8]]","[[3, 3, 3, 3, 3], [0, 3, 0, 3, 0], [3, 3, 3, 3, 0]]","[5, 13, 12]",5,10,8,4,0.064,0.06,0.004,"[5, 7, 9, 14]",4,5,3,8128,12,191,179,none,True,0,5,traffic-light-mouselab,12,400539,6,0,0,5,0,3,30
traffic-light-mouselab,False,3,1,"[10, 10, 10, 14, 14, 14, 12, 12, 12, 1, 1, 1, 3, 3, 3]","[[5, 5, 6, 5, 7], [5, 5, 8, 1, 2], [7, 5, 7, 7, 5]]","[[3, 0, 3, 0, 3], [3, 3, 3, 3, 3], [0, 3, 0, 3, 0]]","[1, 5, 24]",1,28,9,1,0.05,0.045000000000000005,0.005,"[10, 14, 12, 1, 3]",5,5,3,14140,15,150,135,none,True,0,1,traffic-light-mouselab,13,416761,5,0,6,1,2,3,30
traffic-light-mouselab,False,3,1,"[5, 5, 5, 9, 9, 9, 2, 2, 2, 11, 11, 11, 3, 3, 3]","[[6, 4, 3, 7, 3], [5, 6, 5, 5, 7], [4, 6, 2, 5, 5]]","[[3, 3, 0, 0, 3], [0, 3, 3, 3, 0], [3, 0, 3, 3, 3]]","[2, 27, 1]",27,34,10,3,0.051,0.046,0.005,"[5, 9, 2, 11, 3]",5,5,3,12035,15,154,139,none,True,1,27,traffic-light-mouselab,14,431627,5,0,6,27,2,3,30
traffic-light-mouselab,False,3,1,"[5, 6, 7, 8, 9]","[[2, 2, 4, 0, 3], [7, 5, 6, 6, 3], [3, 9, 7, 7, 5]]","[[3, 3, 3, 3, 3], [0, 0, 0, 0, 0], [3, 3, 3, 3, 3]]","[2, 6, 22]",6,24,11,0,0.037,0.035333333333333335,0.0016666666666666668,"[5, 6, 7, 8, 9]",5,5,3,11128,5,112,107,none,False,1,6,traffic-light-mouselab,15,444243,7,1,5,6,5,3,30
traffic-light-mouselab,False,3,1,[],"[[5, 6, 5, 6, 6], [4, 4, 3, 6, 4], [4, 4, 5, 6, 8]]","[[3, 3, 3, 3, 3], [3, 3, 3, 3, 3], [3, 3, 3, 3, 3]]","[5, 15, 10]",15,10,12,0,0.042,0.042,0.0,[],0,5,3,3317,0,125,125,none,True,1,15,traffic-light-mouselab,16,449643,4,0,0,15,0,3,30
traffic-light-mouselab,False,3,1,"[6, 5, 7, 8, 9, 2, 2, 2]","[[3, 3, 5, 6, 4], [6, 4, 5, 7, 5], [6, 4, 5, 6, 7]]","[[3, 3, 0, 3, 3], [0, 0, 0, 0, 0], [3, 3, 3, 3, 3]]","[9, 16, 5]",16,12,13,2,0.05,0.04733333333333334,0.0026666666666666666,"[6, 5, 7, 8, 9, 2]",6,5,3,7091,8,150,142,none,False,1,16,traffic-light-mouselab,17,459934,5,0,5,16,5,3,30
traffic-light-mouselab,False,3,1,"[0, 1, 2, 3, 4, 12, 12, 12]","[[4, 4, 7, 6, 5], [6, 9, 6, 7, 2], [5, 5, 7, 2, 4]]","[[0, 0, 0, 0, 0], [3, 3, 3, 3, 3], [3, 3, 0, 3, 3]]","[8, 19, 3]",8,18,14,2,0.064,0.06133333333333334,0.0026666666666666666,"[0, 1, 2, 3, 4, 12]",6,5,3,5431,8,191,183,none,False,0,8,traffic-light-mouselab,18,467032,7,1,5,8,5,3,30
traffic-light-mouselab,False,3,1,"[5, 5, 5, 2, 2, 2]","[[2, 4, 8, 6, 3], [2, 4, 4, 8, 6], [7, 9, 2, 6, 2]]","[[3, 3, 0, 3, 3], [0, 3, 3, 3, 3], [3, 3, 3, 3, 3]]","[12, 17, 1]",17,18,15,2,0.055,0.053,0.002,"[5, 2]",2,5,3,7020,6,166,160,none,True,1,17,traffic-light-mouselab,19,478777,4,0,3,17,1,3,30
traffic-light-mouselab,False,3,1,[],"[[6, 7, 8, 5, 4], [4, 2, 3, 4, 4], [6, 6, 3, 2, 4]]","[[1, 1, 1, 1, 1], [3, 3, 3, 3, 3], [3, 3, 3, 3, 3]]","[12, 4, 14]",12,12,16,0,0.057,0.057,0.0,[],0,5,3,1053,0,172,172,none,False,0,12,traffic-light-mouselab,20,481921,6,0,0,12,0,3,30
traffic-light-mouselab,False,3,1,[],"[[5, 8, 4, 7, 5], [2, 6, 6, 7, 5], [4, 2, 4, 5, 5]]","[[3, 3, 3, 3, 3], [3, 3, 3, 3, 3], [3, 3, 3, 3, 3]]","[25, 3, 2]",25,30,17,2,0.042,0.042,0.0,[],0,5,3,1933,0,126,126,none,True,0,25,traffic-light-mouselab,21,485334,4,0,0,25,0,3,30
traffic-light-mouselab,False,3,1,"[5, 5, 5, 8, 8, 8, 12, 12, 12]","[[4, 7, 4, 4, 4], [3, 8, 8, 6, 4], [8, 5, 8, 4, 3]]","[[3, 3, 3, 3, 3], [0, 3, 3, 0, 3], [3, 3, 0, 3, 3]]","[6, 13, 11]",11,8,18,2,0.072,0.06899999999999999,0.003,"[5, 8, 12]",3,5,3,6783,9,216,207,none,True,2,11,traffic-light-mouselab,22,494153,8,1,3,11,1,3,30
traffic-light-mouselab,False,3,1,"[5, 6, 7, 8, 9]","[[3, 5, 3, 2, 4], [3, 5, 8, 7, 6], [2, 6, 4, 4, 4]]","[[3, 3, 3, 3, 3], [0, 0, 0, 0, 0], [3, 3, 3, 3, 3]]","[2, 22, 6]",22,24,19,2,0.069,0.06733333333333334,0.0016666666666666668,"[5, 6, 7, 8, 9]",5,5,3,4983,5,206,201,none,False,1,22,traffic-light-mouselab,23,500561,8,1,5,22,5,3,30
traffic-light-mouselab,False,3,1,"[5, 7, 6, 8, 9]","[[5, 9, 0, 7, 6], [6, 4, 4, 6, 5], [4, 6, 2, 4, 4]]","[[3, 3, 3, 3, 3], [0, 0, 0, 0, 0], [3, 3, 3, 3, 3]]","[4, 24, 2]",24,28,20,1,0.048,0.04633333333333334,0.0016666666666666668,"[5, 7, 6, 8, 9]",5,5,3,4731,5,144,139,none,False,1,24,traffic-light-mouselab,24,506685,4,0,5,24,5,3,30
traffic-light-mouselab,False,3,1,"[10, 11, 12, 13, 14]","[[5, 5, 3, 5, 6], [4, 4, 5, 6, 5], [3, 7, 4, 3, 4]]","[[3, 3, 3, 3, 3], [3, 3, 3, 3, 3], [0, 0, 0, 0, 0]]","[4, 8, 18]",18,16,21,1,0.059,0.05733333333333333,0.0016666666666666668,"[10, 11, 12, 13, 14]",5,5,3,3435,5,178,173,none,False,2,18,traffic-light-mouselab,25,511519,7,1,5,18,5,3,30
traffic-light-mouselab,False,3,1,[],"[[2, 3, 5, 5, 4], [3, 1, 5, 5, 8], [2, 7, 5, 4, 7]]","[[3, 3, 3, 3, 3], [3, 3, 3, 3, 3], [3, 3, 3, 3, 3]]","[7, 19, 4]",19,18,22,2,0.05,0.05,0.0,[],0,5,3,3985,0,150,150,none,True,1,19,traffic-light-mouselab,26,517628,5,0,0,19,0,3,30
traffic-light-mouselab,False,3,1,"[5, 6, 7, 8, 9]","[[6, 5, 5, 3, 4], [5, 6, 8, 7, 4], [4, 5, 2, 5, 6]]","[[3, 3, 3, 3, 3], [0, 0, 0, 0, 0], [3, 3, 3, 3, 3]]","[1, 26, 3]",26,32,23,2,0.073,0.07133333333333333,0.0016666666666666668,"[5, 6, 7, 8, 9]",5,5,3,3891,5,219,214,none,False,1,26,traffic-light-mouselab,27,522950,8,1,5,26,5,3,30
traffic-light-mouselab,False,3,1,[],"[[6, 5, 7, 7, 6], [7, 5, 5, 6, 5], [6, 2, 5, 7, 4]]","[[3, 3, 3, 3, 3], [3, 3, 3, 3, 3], [3, 3, 3, 3, 3]]","[9, 13, 8]",13,6,24,0,0.064,0.064,0.0,[],0,5,3,1822,0,193,193,none,True,1,13,traffic-light-mouselab,28,525850,7,1,0,13,0,3,30
traffic-light-mouselab,False,3,1,"[5, 6, 7, 8, 9]","[[5, 7, 6, 7, 4], [6, 6, 4, 4, 8], [7, 5, 5, 5, 3]]","[[3, 3, 3, 3, 3], [0, 0, 0, 0, 0], [3, 3, 3, 3, 3]]","[13, 10, 7]",10,6,25,4,0.051,0.04933333333333333,0.0016666666666666668,"[5, 6, 7, 8, 9]",5,5,3,4260,5,153,148,none,False,1,10,traffic-light-mouselab,29,531510,8,1,5,10,5,3,30
traffic-light-mouselab,False,3,1,"[10, 11, 12, 13, 14]","[[7, 6, 2, 3, 6], [9, 3, 7, 6, 5], [8, 5, 3, 5, 2]]","[[3, 3, 3, 3, 3], [3, 3, 3, 3, 3], [0, 0, 0, 0, 0]]","[1, 1, 28]",28,36,26,4,0.022,0.02033333333333333,0.0016666666666666668,"[10, 11, 12, 13, 14]",5,5,3,3710,5,67,62,none,False,2,28,traffic-light-mouselab,30,536818,2,0,5,28,5,3,30
traffic-light-mouselab,False,3,1,"[0, 2, 3, 4, 1]","[[8, 5, 4, 3, 5], [4, 3, 6, 4, 4], [5, 7, 8, 3, 4]]","[[0, 0, 0, 0, 0], [3, 3, 3, 3, 3], [3, 3, 3, 3, 3]]","[4, 5, 21]",4,22,27,0,0.052,0.050333333333333334,0.0016666666666666668,"[0, 2, 3, 4, 1]",5,5,3,3558,5,157,152,none,False,0,4,traffic-light-mouselab,31,541612,8,1,5,4,5,3,30
traffic-light-mouselab,False,3,1,[],"[[7, 4, 4, 6, 6], [5, 6, 4, 7, 3], [5, 6, 5, 1, 6]]","[[3, 3, 3, 3, 3], [3, 3, 3, 3, 3], [3, 3, 3, 3, 3]]","[3, 4, 23]",23,26,28,3,0.023,0.023,0.0,[],0,5,3,2091,0,69,69,none,True,2,23,traffic-light-mouselab,32,544930,1,0,0,23,0,3,30
traffic-light-mouselab,False,3,1,[],"[[7, 4, 4, 3, 4], [4, 5, 7, 3, 6], [7, 4, 6, 6, 4]]","[[1, 1, 1, 1, 1], [3, 3, 3, 3, 3], [3, 3, 3, 3, 3]]","[14, 13, 3]",14,14,29,1,0.044,0.044,0.0,[],0,5,3,2027,0,133,133,none,False,0,14,traffic-light-mouselab,33,548098,4,0,0,14,0,3,30
traffic-light-mouselab,False,3,1,[],"[[5, 6, 4, 6, 4], [4, 7, 3, 5, 6], [5, 3, 2, 4, 7]]","[[3, 3, 3, 3, 3], [3, 3, 3, 3, 3], [3, 3, 3, 3, 3]]","[6, 7, 17]",7,14,30,0,0.048,0.048,0.0,[],0,5,3,1130,0,143,143,none,True,1,7,traffic-light-mouselab,34,550291,4,0,0,7,0,3,30
traffic-light-mouselab,True,3,1,[],"[[5, 7, 4, 4, 3], [4, 6, 4, 5, 8], [3, 5, 5, 3, 5]]","[[3, 3, 3, 3, 3], [3, 3, 3, 3, 3], [1, 1, 1, 1, 1]]","[26, 1, 3]",3,32,1,0,0.048,0.048,0.0,[],0,5,3,7512,0,143,143,none,False,2,3,traffic-light-mouselab,4,518022,3,0,0,3,0,4,30
traffic-light-mouselab,True,3,1,[],"[[7, 6, 5, 5, 6], [4, 1, 9, 3, 9], [3, 2, 8, 4, 5]]","[[3, 3, 3, 3, 3], [3, 3, 3, 3, 3], [3, 3, 3, 3, 3]]","[9, 6, 15]",9,10,2,0,0.044,0.044,0.0,[],0,5,3,2548,0,132,132,none,True,0,9,traffic-light-mouselab,5,526622,7,1,0,9,0,4,30
traffic-light-mouselab,False,3,1,[],"[[6, 7, 6, 4, 6], [7, 3, 7, 4, 5], [7, 5, 8, 5, 3]]","[[3, 3, 3, 3, 3], [3, 3, 3, 3, 3], [1, 1, 1, 1, 1]]","[6, 9, 15]",15,10,3,0,0.068,0.068,0.0,[],0,5,3,5796,0,204,204,none,False,2,15,traffic-light-mouselab,7,543470,7,0,0,15,0,4,30
traffic-light-mouselab,False,3,1,"[0, 1, 2, 3, 4]","[[6, 4, 3, 2, 5], [8, 5, 4, 5, 5], [5, 3, 5, 1, 5]]","[[2, 2, 2, 2, 2], [1, 1, 1, 1, 1], [3, 3, 3, 3, 3]]","[27, 1, 2]",1,34,4,0,0.06,0.058333333333333334,0.0016666666666666668,[],0,5,3,52630,5,180,175,none,False,1,1,traffic-light-mouselab,8,609997,8,1,0,1,0,4,30
traffic-light-mouselab,False,3,1,"[0, 1, 2, 3, 4]","[[6, 8, 4, 4, 2], [7, 8, 4, 6, 5], [4, 6, 5, 2, 3]]","[[0, 0, 0, 0, 0], [3, 3, 3, 3, 3], [3, 3, 3, 3, 3]]","[13, 12, 5]",13,10,5,3,0.045,0.043333333333333335,0.0016666666666666668,"[0, 1, 2, 3, 4]",5,5,3,20399,5,134,129,none,False,0,13,traffic-light-mouselab,9,632799,4,0,5,13,5,4,30
traffic-light-mouselab,False,3,1,"[5, 5, 5, 6, 6, 6, 7, 7, 7, 8, 8, 8, 9, 9, 9]","[[7, 6, 5, 8, 7], [6, 4, 4, 6, 4], [4, 3, 5, 4, 6]]","[[3, 3, 3, 3, 3], [0, 0, 0, 0, 0], [3, 3, 3, 3, 3]]","[2, 24, 4]",24,28,6,4,0.045,0.04,0.005,"[5, 6, 7, 8, 9]",5,5,3,24398,15,134,119,none,True,1,24,traffic-light-mouselab,10,659281,4,0,15,24,5,4,30
traffic-light-mouselab,False,3,1,"[0, 1, 2, 3, 4]","[[4, 7, 3, 4, 2], [0, 6, 8, 6, 3], [6, 6, 8, 3, 5]]","[[0, 0, 0, 0, 0], [3, 3, 3, 3, 3], [3, 3, 3, 3, 3]]","[23, 2, 5]",23,26,7,4,0.026,0.024333333333333332,0.0016666666666666668,"[0, 1, 2, 3, 4]",5,5,3,6093,5,77,72,none,False,0,23,traffic-light-mouselab,11,670747,2,0,5,23,5,4,30
traffic-light-mouselab,False,3,1,"[0, 0, 0, 1, 1, 1, 2, 2, 2, 3, 3, 3, 4, 4, 4]","[[9, 7, 3, 5, 4], [4, 3, 5, 2, 8], [3, 3, 5, 2, 6]]","[[0, 0, 0, 0, 0], [3, 3, 3, 3, 3], [3, 3, 3, 3, 3]]","[20, 8, 2]",20,20,8,4,0.052,0.047,0.005,"[0, 1, 2, 3, 4]",5,5,3,8626,15,156,141,none,True,0,20,traffic-light-mouselab,12,683032,4,0,15,20,5,4,30
traffic-light-mouselab,False,3,1,"[10, 11, 12, 13, 14]","[[5, 4, 8, 6, 6], [5, 4, 5, 2, 6], [5, 7, 9, 5, 4]]","[[3, 3, 3, 3, 3], [3, 3, 3, 3, 3], [0, 0, 0, 0, 0]]","[2, 3, 25]",25,30,9,4,0.043,0.04133333333333333,0.0016666666666666668,"[10, 11, 12, 13, 14]",5,5,3,8627,5,130,125,none,False,2,25,traffic-light-mouselab,13,693563,4,0,5,25,5,4,30
traffic-light-mouselab,False,3,1,"[5, 6, 7, 8, 9]","[[3, 5, 5, 5, 2], [4, 4, 4, 8, 5], [8, 6, 7, 7, 5]]","[[3, 3, 3, 3, 3], [0, 0, 0, 0, 0], [3, 3, 3, 3, 3]]","[13, 7, 10]",7,6,10,4,0.037,0.035333333333333335,0.0016666666666666668,"[5, 6, 7, 8, 9]",5,5,3,9017,5,111,106,none,False,1,7,traffic-light-mouselab,14,708718,5,0,5,7,5,4,30
traffic-light-mouselab,False,3,1,"[0, 1, 2, 3, 4]","[[4, 4, 6, 7, 4], [4, 1, 6, 4, 5], [4, 5, 4, 2, 5]]","[[0, 0, 0, 0, 0], [3, 3, 3, 3, 3], [3, 3, 3, 3, 3]]","[21, 8, 1]",21,22,11,4,0.043,0.04133333333333333,0.0016666666666666668,"[0, 1, 2, 3, 4]",5,5,3,6095,5,129,124,none,False,0,21,traffic-light-mouselab,15,729638,4,0,5,21,5,4,30
traffic-light-mouselab,False,3,1,[],"[[2, 4, 2, 6, 5], [6, 8, 7, 6, 7], [4, 5, 6, 5, 6]]","[[3, 3, 3, 3, 3], [3, 3, 3, 3, 3], [3, 3, 3, 3, 3]]","[8, 10, 12]",12,4,12,3,0.056,0.056,0.0,[],0,5,3,3506,0,168,168,none,True,2,12,traffic-light-mouselab,16,735166,5,0,0,12,0,4,30
traffic-light-mouselab,False,3,1,"[10, 10, 10, 11, 11, 11, 12, 12, 12, 13, 13, 13, 14, 14, 14, 0, 0, 0, 1, 1, 1, 2, 2, 2, 3, 3, 3, 4, 4, 4]","[[5, 6, 4, 5, 1], [6, 3, 5, 3, 6], [2, 6, 3, 3, 3]]","[[0, 0, 0, 0, 0], [3, 3, 3, 3, 3], [0, 0, 0, 0, 0]]","[6, 2, 22]",22,24,13,4,0.028,0.018000000000000002,0.01,"[10, 11, 12, 13, 14, 0, 1, 2, 3, 4]",10,5,3,26978,30,84,54,none,True,2,22,traffic-light-mouselab,17,770628,3,0,15,22,5,4,30
traffic-light-mouselab,False,3,1,[],"[[7, 6, 5, 3, 3], [3, 6, 5, 8, 6], [4, 4, 3, 2, 3]]","[[3, 3, 3, 3, 3], [1, 1, 1, 1, 1], [3, 3, 3, 3, 3]]","[10, 11, 9]",11,2,14,4,0.041,0.041,0.0,[],0,5,3,3375,0,123,123,none,False,1,11,traffic-light-mouselab,18,782547,6,0,0,11,0,4,30
traffic-light-mouselab,False,3,1,"[5, 6, 7, 8, 9]","[[4, 4, 5, 5, 5], [6, 4, 2, 5, 5], [8, 8, 6, 4, 3]]","[[3, 3, 3, 3, 3], [0, 0, 0, 0, 0], [3, 3, 3, 3, 3]]","[8, 19, 3]",19,18,15,0,0.057,0.05533333333333334,0.0016666666666666668,"[5, 6, 7, 8, 9]",5,5,3,7607,5,170,165,none,False,1,19,traffic-light-mouselab,19,792129,6,1,5,19,5,4,30
traffic-light-mouselab,False,3,1,[],"[[5, 3, 5, 6, 6], [7, 6, 8, 6, 7], [6, 5, 8, 7, 8]]","[[3, 3, 3, 3, 3], [3, 3, 3, 3, 3], [1, 1, 1, 1, 1]]","[2, 19, 9]",9,18,16,1,0.055,0.055,0.0,[],0,5,3,17566,0,165,165,none,False,2,9,traffic-light-mouselab,20,811590,5,0,0,9,0,4,30
traffic-light-mouselab,False,3,1,[],"[[7, 7, 2, 6, 4], [4, 3, 4, 4, 7], [4, 2, 1, 3, 3]]","[[3, 3, 3, 3, 3], [3, 3, 3, 3, 3], [3, 3, 3, 3, 3]]","[22, 6, 2]",2,24,17,3,0.054,0.054,0.0,[],0,5,3,4403,0,162,162,none,True,2,2,traffic-light-mouselab,21,817663,3,0,0,2,0,4,30
traffic-light-mouselab,False,3,1,[],"[[7, 4, 4, 5, 4], [6, 5, 5, 5, 5], [7, 4, 4, 5, 5]]","[[3, 3, 3, 3, 3], [3, 3, 3, 3, 3], [3, 3, 3, 3, 3]]","[1, 28, 1]",28,36,18,2,0.049,0.049,0.0,[],0,5,3,2471,0,148,148,none,True,1,28,traffic-light-mouselab,22,821820,5,0,0,28,0,4,30
traffic-light-mouselab,False,3,1,[],"[[3, 7, 3, 3, 7], [3, 4, 4, 4, 6], [7, 5, 5, 5, 5]]","[[3, 3, 3, 3, 3], [3, 3, 3, 3, 3], [3, 3, 3, 3, 3]]","[3, 26, 1]",26,32,19,1,0.043,0.043,0.0,[],0,5,3,2990,0,130,130,none,True,1,26,traffic-light-mouselab,23,826069,4,0,0,26,0,4,30
traffic-light-mouselab,False,3,1,[5],"[[1, 6, 5, 5, 3], [6, 6, 8, 6, 4], [9, 7, 4, 5, 5]]","[[3, 3, 3, 3, 3], [0, 1, 1, 1, 1], [3, 3, 3, 3, 3]]","[5, 17, 8]",17,14,20,0,0.06,0.059666666666666666,0.0003333333333333333,[5],1,5,3,3388,1,179,178,none,False,1,17,traffic-light-mouselab,24,830980,6,0,1,17,1,4,30
traffic-light-mouselab,False,3,1,[],"[[6, 5, 8, 6, 3], [5, 5, 6, 3, 3], [7, 6, 5, 9, 4]]","[[3, 3, 3, 3, 3], [3, 3, 3, 3, 3], [1, 1, 1, 1, 1]]","[11, 16, 3]",3,14,21,2,0.066,0.066,0.0,[],0,5,3,3810,0,199,199,none,False,2,3,traffic-light-mouselab,25,836377,5,0,0,3,0,4,30
traffic-light-mouselab,False,3,1,[],"[[4, 2, 4, 6, 3], [6, 2, 4, 3, 8], [6, 5, 2, 3, 5]]","[[3, 3, 3, 3, 3], [3, 3, 3, 3, 3], [3, 3, 3, 3, 3]]","[7, 6, 17]",6,14,22,3,0.037,0.037,0.0,[],0,5,3,3187,0,111,111,none,True,1,6,traffic-light-mouselab,26,840960,3,0,0,6,0,4,30
traffic-light-mouselab,False,3,1,[],"[[5, 9, 6, 6, 6], [4, 7, 5, 3, 6], [7, 0, 5, 6, 5]]","[[3, 3, 3, 3, 3], [3, 3, 3, 3, 3], [3, 3, 3, 3, 3]]","[14, 11, 5]",14,10,23,4,0.058,0.058,0.0,[],0,5,3,2891,0,175,175,none,True,0,14,traffic-light-mouselab,27,845084,6,0,0,14,0,4,30
traffic-light-mouselab,False,3,1,[],"[[4, 3, 3, 6, 4], [6, 6, 6, 6, 3], [5, 5, 4, 7, 4]]","[[3, 3, 3, 3, 3], [3, 3, 3, 3, 3], [3, 3, 3, 3, 3]]","[16, 5, 9]",16,12,24,1,0.041,0.041,0.0,[],0,5,3,8258,0,123,123,none,True,0,16,traffic-light-mouselab,28,854778,3,0,0,16,0,4,30
traffic-light-mouselab,False,3,1,[],"[[2, 5, 3, 4, 7], [3, 2, 4, 6, 4], [7, 6, 4, 7, 10]]","[[3, 3, 3, 3, 3], [3, 3, 3, 3, 3], [3, 3, 3, 3, 3]]","[16, 4, 10]",10,12,25,2,0.035,0.035,0.0,[],0,5,3,2484,0,104,104,none,True,2,10,traffic-light-mouselab,29,858824,4,0,0,10,0,4,30
traffic-light-mouselab,False,3,1,[],"[[3, 7, 4, 8, 6], [5, 4, 5, 3, 4], [4, 6, 6, 4, 4]]","[[3, 3, 3, 3, 3], [3, 3, 3, 3, 3], [3, 3, 3, 3, 3]]","[7, 18, 5]",18,16,26,3,0.043,0.043,0.0,[],0,5,3,1751,0,130,130,none,True,1,18,traffic-light-mouselab,30,862020,3,0,0,18,0,4,30
traffic-light-mouselab,False,3,1,[],"[[4, 3, 7, 3, 6], [3, 6, 4, 6, 5], [5, 5, 5, 7, 4]]","[[3, 3, 3, 3, 3], [3, 3, 3, 3, 3], [3, 3, 3, 3, 3]]","[8, 16, 6]",8,12,27,4,0.051,0.051,0.0,[],0,5,3,2546,0,152,152,none,True,0,8,traffic-light-mouselab,31,866285,6,0,0,8,0,4,30
traffic-light-mouselab,False,3,1,"[11, 12]","[[5, 8, 5, 4, 5], [3, 4, 5, 6, 7], [7, 3, 8, 7, 6]]","[[3, 3, 3, 3, 3], [3, 3, 3, 3, 3], [1, 0, 0, 1, 1]]","[18, 7, 5]",5,16,28,2,0.055,0.05433333333333333,0.0006666666666666666,"[11, 12]",2,5,3,7677,2,165,163,none,False,2,5,traffic-light-mouselab,32,875345,8,1,2,5,2,4,30
traffic-light-mouselab,False,3,1,"[11, 11, 11, 12, 12, 12]","[[3, 9, 7, 4, 6], [7, 6, 4, 4, 3], [4, 4, 8, 5, 4]]","[[3, 3, 3, 3, 3], [3, 3, 3, 3, 3], [3, 0, 0, 3, 3]]","[2, 4, 24]",4,28,29,2,0.074,0.072,0.002,"[11, 12]",2,5,3,8814,6,222,216,none,True,1,4,traffic-light-mouselab,33,885932,4,0,0,4,0,4,30
traffic-light-mouselab,False,3,1,"[5, 6, 7, 8, 9]","[[5, 1, 6, 6, 7], [7, 4, 5, 7, 5], [8, 3, 5, 4, 7]]","[[3, 3, 3, 3, 3], [0, 0, 0, 0, 0], [3, 3, 3, 3, 3]]","[1, 27, 2]",27,34,30,0,0.07,0.06833333333333334,0.0016666666666666668,"[5, 6, 7, 8, 9]",5,5,3,7546,5,210,205,none,False,1,27,traffic-light-mouselab,34,895156,7,1,5,27,5,4,30
traffic-light-mouselab,True,3,1,"[6, 6, 6, 9, 9, 9, 8, 8, 8, 7, 7, 7, 5, 5, 5, 10, 11, 12, 13, 14, 4, 4, 4, 3, 3, 3, 2, 2, 2, 1, 1, 1, 0, 0, 0, 10]","[[5, 5, 1, 8, 5], [6, 7, 8, 3, 5], [5, 3, 5, 4, 5]]","[[0, 0, 0, 0, 0], [0, 0, 0, 0, 0], [0, 0, 0, 0, 0]]","[8, 19, 3]",3,18,1,1,0.061,0.04933333333333333,0.011666666666666667,"[6, 9, 8, 7, 5, 10, 11, 12, 13, 14, 4, 3, 2, 1, 0]",15,5,3,73147,35,182,147,none,False,2,3,traffic-light-mouselab,4,231552,3,0,6,3,5,5,30
traffic-light-mouselab,True,3,1,"[10, 10, 10, 11, 11, 11, 12, 12, 12, 13, 13, 13, 14, 14, 14]","[[7, 3, 5, 5, 5], [6, 3, 6, 8, 5], [4, 4, 5, 4, 3]]","[[3, 3, 3, 3, 3], [3, 3, 3, 3, 3], [0, 0, 0, 0, 0]]","[3, 5, 22]",5,24,2,2,0.052,0.047,0.005,"[10, 11, 12, 13, 14]",5,5,3,10373,15,155,140,none,True,1,5,traffic-light-mouselab,5,244134,6,0,0,5,0,5,30
traffic-light-mouselab,False,3,1,"[0, 0, 0, 1, 1, 1, 2, 2, 2, 3, 3, 3, 4, 4, 4, 12, 14]","[[5, 5, 6, 4, 6], [7, 3, 4, 5, 3], [5, 5, 4, 7, 5]]","[[0, 0, 0, 0, 0], [3, 3, 3, 3, 3], [1, 1, 0, 1, 0]]","[14, 10, 6]",6,8,3,4,0.048,0.042333333333333334,0.005666666666666667,"[0, 1, 2, 3, 4, 12, 14]",7,5,3,14192,17,144,127,none,False,2,6,traffic-light-mouselab,7,265985,5,0,2,6,2,5,30
traffic-light-mouselab,False,3,1,"[5, 5, 5, 6, 6, 6, 7, 7, 7, 8, 8, 8, 9, 9, 9]","[[5, 3, 8, 4, 5], [5, 2, 4, 6, 5], [3, 3, 2, 6, 3]]","[[3, 3, 3, 3, 3], [0, 0, 0, 0, 0], [3, 3, 3, 3, 3]]","[6, 19, 5]",19,18,4,3,0.056,0.051000000000000004,0.005,"[5, 6, 7, 8, 9]",5,5,3,17660,15,168,153,none,True,1,19,traffic-light-mouselab,8,284996,6,1,15,19,5,5,30
traffic-light-mouselab,False,3,1,"[0, 1, 2, 3, 4, 5, 5, 5, 7, 7, 7]","[[8, 3, 7, 4, 5], [3, 5, 8, 4, 3], [6, 4, 4, 6, 3]]","[[0, 0, 0, 0, 0], [0, 3, 0, 3, 3], [3, 3, 3, 3, 3]]","[18, 7, 5]",18,16,5,2,0.067,0.06333333333333334,0.0036666666666666666,"[0, 1, 2, 3, 4, 5, 7]",7,5,3,12375,11,202,191,none,False,0,18,traffic-light-mouselab,9,299083,7,0,5,18,5,5,30
traffic-light-mouselab,False,3,1,"[5, 6, 7, 8, 9, 11, 11, 11, 12, 12, 12, 14, 14, 14]","[[6, 7, 3, 6, 3], [5, 6, 6, 4, 6], [7, 1, 7, 5, 4]]","[[3, 3, 3, 3, 3], [0, 0, 0, 0, 0], [3, 0, 0, 3, 0]]","[4, 12, 14]",12,12,6,2,0.061,0.05633333333333333,0.004666666666666667,"[5, 6, 7, 8, 9, 11, 12, 14]",8,5,3,11319,14,182,168,none,False,1,12,traffic-light-mouselab,10,311514,6,1,5,12,5,5,30
traffic-light-mouselab,False,3,1,"[5, 5, 5, 6, 6, 6, 7, 7, 7, 8, 8, 8, 9, 9, 9, 12, 13, 3, 3, 3, 2, 2, 2]","[[5, 4, 4, 7, 7], [2, 4, 6, 6, 3], [6, 6, 6, 8, 4]]","[[3, 3, 0, 0, 3], [0, 0, 0, 0, 0], [1, 1, 0, 0, 1]]","[9, 13, 8]",8,6,7,3,0.068,0.060333333333333336,0.007666666666666666,"[5, 6, 7, 8, 9, 12, 13, 3, 2]",9,5,3,19505,23,205,182,none,False,2,8,traffic-light-mouselab,11,331974,8,1,2,8,2,5,30
traffic-light-mouselab,False,3,1,"[5, 6, 7, 8, 9, 0, 0, 0, 1, 1, 1, 4, 4, 4]","[[6, 4, 5, 6, 5], [6, 5, 4, 0, 5], [3, 7, 7, 4, 6]]","[[0, 0, 3, 3, 0], [0, 0, 0, 0, 0], [3, 3, 3, 3, 3]]","[7, 22, 1]",22,24,8,0,0.059,0.05433333333333333,0.004666666666666667,"[5, 6, 7, 8, 9, 0, 1, 4]",8,5,3,12237,14,177,163,none,False,1,22,traffic-light-mouselab,12,345807,6,1,5,22,5,5,30
traffic-light-mouselab,False,3,1,"[10, 10, 10, 11, 11, 11, 13, 13, 13, 14, 14, 14, 12, 12, 12, 3, 3, 3, 0, 0, 0, 2, 2, 2, 4, 4, 4]","[[5, 4, 5, 4, 8], [4, 5, 6, 6, 3], [6, 3, 5, 6, 5]]","[[0, 3, 0, 0, 0], [3, 3, 3, 3, 3], [0, 0, 0, 0, 0]]","[14, 1, 15]",1,18,9,4,0.063,0.054,0.009,"[10, 11, 13, 14, 12, 3, 0, 2, 4]",9,5,3,24757,27,190,163,none,True,1,1,traffic-light-mouselab,13,371595,3,0,0,1,0,5,30
traffic-light-mouselab,False,3,1,"[10, 10, 10, 11, 11, 11, 12, 12, 12, 13, 13, 13, 14, 14, 14]","[[9, 8, 4, 4, 6], [5, 5, 8, 5, 3], [7, 5, 7, 4, 6]]","[[3, 3, 3, 3, 3], [3, 3, 3, 3, 3], [0, 0, 0, 0, 0]]","[2, 1, 27]",27,34,10,2,0.068,0.063,0.005,"[10, 11, 12, 13, 14]",5,5,3,7439,15,205,190,none,True,2,27,traffic-light-mouselab,14,380126,7,1,15,27,5,5,30
traffic-light-mouselab,False,3,1,"[0, 0, 0, 1, 1, 1, 2, 2, 2, 3, 3, 3, 4, 4, 4, 6, 6, 6, 7, 7, 7, 5, 5, 5, 8, 8, 8]","[[5, 7, 9, 6, 1], [5, 4, 2, 7, 6], [9, 4, 3, 5, 6]]","[[0, 0, 0, 0, 0], [0, 0, 0, 0, 3], [3, 3, 3, 3, 3]]","[15, 14, 1]",15,18,11,3,0.064,0.055,0.009,"[0, 1, 2, 3, 4, 6, 7, 5, 8]",9,5,3,23417,27,193,166,none,True,0,15,traffic-light-mouselab,15,404572,6,0,15,15,5,5,30
traffic-light-mouselab,False,3,1,"[10, 10, 10, 11, 11, 11, 12, 12, 12, 13, 13, 13, 14, 14, 14, 6, 6, 6, 7, 7, 7, 8, 8, 8]","[[1, 5, 4, 6, 6], [3, 6, 5, 8, 1], [3, 6, 9, 6, 3]]","[[3, 3, 3, 3, 3], [3, 0, 0, 0, 3], [0, 0, 0, 0, 0]]","[3, 10, 17]",17,14,12,2,0.072,0.064,0.008,"[10, 11, 12, 13, 14, 6, 7, 8]",8,5,3,33513,24,215,191,none,True,2,17,traffic-light-mouselab,16,439487,9,1,15,17,5,5,30
traffic-light-mouselab,False,3,1,"[10, 10, 10, 11, 11, 11, 13, 13, 13, 14, 14, 14, 12, 12, 12, 0, 0, 0, 2, 2, 2]","[[6, 3, 5, 4, 3], [3, 4, 7, 5, 5], [10, 3, 6, 5, 5]]","[[0, 3, 0, 3, 3], [3, 3, 3, 3, 3], [0, 0, 0, 0, 0]]","[13, 4, 13]",13,12,13,0,0.073,0.06599999999999999,0.007,"[10, 11, 13, 14, 12, 0, 2]",7,5,3,13989,21,220,199,none,True,2,13,traffic-light-mouselab,17,455657,10,1,15,13,5,5,30
traffic-light-mouselab,False,3,1,"[0, 0, 0, 1, 1, 1, 2, 2, 2, 3, 3, 3, 4, 4, 4, 6, 6, 6, 5, 5, 5, 9, 9, 9]","[[6, 6, 3, 5, 6], [7, 8, 5, 9, 4], [7, 5, 6, 5, 7]]","[[0, 0, 0, 0, 0], [0, 0, 3, 3, 0], [3, 3, 3, 3, 3]]","[23, 5, 2]",23,26,14,1,0.063,0.055,0.008,"[0, 1, 2, 3, 4, 6, 5, 9]",8,5,3,12301,24,188,164,none,True,0,23,traffic-light-mouselab,18,469301,6,1,15,23,5,5,30
traffic-light-mouselab,False,3,1,"[5, 6, 7, 8, 9]","[[3, 6, 3, 5, 3], [3, 6, 8, 4, 5], [6, 4, 5, 7, 4]]","[[3, 3, 3, 3, 3], [0, 0, 0, 0, 0], [3, 3, 3, 3, 3]]","[1, 28, 1]",28,36,15,2,0.077,0.07533333333333334,0.0016666666666666668,"[5, 6, 7, 8, 9]",5,5,3,4535,5,232,227,none,False,1,28,traffic-light-mouselab,19,476942,8,1,5,28,5,5,30
traffic-light-mouselab,False,3,1,"[0, 1, 2, 3, 4, 7, 7, 7, 8, 8, 8, 12, 12, 12, 13, 13, 13]","[[4, 4, 8, 7, 5], [6, 2, 5, 6, 7], [7, 5, 6, 6, 8]]","[[0, 0, 0, 0, 0], [3, 3, 0, 0, 3], [3, 3, 0, 0, 3]]","[14, 9, 7]",14,8,16,2,0.066,0.060333333333333336,0.005666666666666667,"[0, 1, 2, 3, 4, 7, 8, 12, 13]",9,5,3,60435,17,199,182,none,False,0,14,traffic-light-mouselab,20,539253,8,1,5,14,5,5,30
traffic-light-mouselab,False,3,1,"[10, 10, 11, 11, 11, 10, 12, 12, 12, 13, 13, 13, 14, 14, 14]","[[4, 5, 3, 4, 7], [8, 6, 5, 5, 8], [3, 3, 4, 7, 3]]","[[3, 3, 3, 3, 3], [3, 3, 3, 3, 3], [0, 0, 0, 0, 0]]","[4, 5, 21]",21,22,17,3,0.063,0.058,0.005,"[11, 10, 12, 13, 14]",5,5,3,15832,15,188,173,none,True,2,21,traffic-light-mouselab,21,556104,7,1,15,21,5,5,30
traffic-light-mouselab,False,3,1,"[5, 5, 5, 6, 6, 6, 7, 7, 7, 8, 8, 8, 9, 9, 9, 4, 4, 4, 3, 3, 3, 2, 2, 2, 1, 1, 1, 0, 0, 0]","[[6, 4, 4, 4, 3], [4, 5, 4, 5, 6], [6, 5, 4, 6, 7]]","[[0, 0, 0, 0, 0], [0, 0, 0, 0, 0], [3, 3, 3, 3, 3]]","[11, 14, 5]",5,10,18,0,0.051,0.040999999999999995,0.01,"[5, 6, 7, 8, 9, 4, 3, 2, 1, 0]",10,5,3,20046,30,152,122,none,True,2,5,traffic-light-mouselab,22,578151,6,0,0,5,0,5,30
traffic-light-mouselab,False,3,1,"[10, 11, 12, 13, 14, 2, 2, 2, 3, 3, 3, 0, 0, 0]","[[4, 5, 4, 4, 3], [7, 5, 5, 5, 6], [5, 0, 6, 5, 1]]","[[0, 3, 0, 0, 3], [3, 3, 3, 3, 3], [0, 0, 0, 0, 0]]","[10, 4, 16]",16,12,19,2,0.052,0.04733333333333333,0.004666666666666667,"[10, 11, 12, 13, 14, 2, 3, 0]",8,5,3,7871,14,156,142,none,False,2,16,traffic-light-mouselab,23,587032,6,1,5,16,5,5,30
traffic-light-mouselab,False,3,1,"[10, 10, 10, 11, 11, 11, 12, 12, 12, 13, 13, 13, 14, 14, 14, 8, 9]","[[7, 8, 4, 6, 7], [4, 4, 3, 6, 5], [5, 4, 6, 8, 8]]","[[3, 3, 3, 3, 3], [1, 1, 1, 0, 0], [0, 0, 0, 0, 0]]","[1, 10, 19]",10,18,20,3,0.073,0.06733333333333333,0.005666666666666667,"[10, 11, 12, 13, 14, 8, 9]",7,5,3,13119,17,218,201,none,False,1,10,traffic-light-mouselab,24,601247,6,1,2,10,2,5,30
traffic-light-mouselab,False,3,1,"[10, 11, 12, 13, 14, 9, 9, 9, 8, 8, 8]","[[5, 2, 3, 6, 6], [5, 5, 4, 5, 5], [5, 3, 1, 6, 7]]","[[3, 3, 3, 3, 3], [3, 3, 3, 0, 0], [0, 0, 0, 0, 0]]","[1, 5, 24]",24,28,21,4,0.066,0.06233333333333334,0.0036666666666666666,"[10, 11, 12, 13, 14, 9, 8]",7,5,3,9178,11,199,188,none,False,2,24,traffic-light-mouselab,25,611771,7,1,5,24,5,5,30
traffic-light-mouselab,False,3,1,"[10, 10, 10, 11, 11, 11, 12, 12, 12, 13, 13, 13, 14, 14, 14, 5, 5, 5, 6, 6, 6, 8, 8, 8, 7, 7, 7, 9, 9, 9, 1, 1, 1, 0, 0, 0]","[[7, 8, 7, 6, 6], [4, 4, 4, 5, 3], [6, 6, 4, 5, 4]]","[[0, 0, 3, 3, 3], [0, 0, 0, 0, 0], [0, 0, 0, 0, 0]]","[6, 9, 15]",9,10,22,1,0.058,0.046,0.012,"[10, 11, 12, 13, 14, 5, 6, 8, 7, 9, 1, 0]",12,5,3,22419,36,174,138,none,True,1,9,traffic-light-mouselab,26,635456,4,0,15,9,5,5,30
traffic-light-mouselab,False,3,1,"[0, 0, 0, 1, 1, 1, 2, 2, 2, 3, 3, 3, 4, 4, 4, 12, 12, 12, 10, 10, 10]","[[5, 3, 6, 2, 3], [8, 4, 7, 4, 7], [6, 5, 1, 4, 3]]","[[0, 0, 0, 0, 0], [3, 3, 3, 3, 3], [0, 3, 0, 3, 3]]","[18, 3, 9]",3,16,23,0,0.056,0.049,0.007,"[0, 1, 2, 3, 4, 12, 10]",7,5,3,13286,21,168,147,none,True,1,3,traffic-light-mouselab,27,649517,8,1,0,3,0,5,30
traffic-light-mouselab,False,3,1,"[10, 11, 12, 13, 14, 6, 6, 6, 5, 5, 5, 1, 1, 1, 0, 0, 0]","[[2, 7, 7, 5, 6], [4, 4, 7, 4, 5], [6, 7, 4, 5, 3]]","[[0, 0, 3, 3, 3], [0, 0, 3, 3, 3], [0, 0, 0, 0, 0]]","[5, 5, 20]",20,20,24,1,0.065,0.059333333333333335,0.005666666666666667,"[10, 11, 12, 13, 14, 6, 5, 1, 0]",9,5,3,8800,17,195,178,none,False,2,20,traffic-light-mouselab,28,659692,7,1,5,20,5,5,30
traffic-light-mouselab,False,3,1,"[0, 0, 0, 1, 1, 1, 2, 2, 2, 3, 3, 3, 4, 4, 4, 12, 12, 12, 10, 10, 10, 11, 11, 11]","[[4, 3, 4, 2, 2], [9, 4, 7, 2, 8], [4, 4, 5, 5, 7]]","[[0, 0, 0, 0, 0], [3, 3, 3, 3, 3], [0, 0, 0, 3, 3]]","[11, 8, 11]",11,4,25,2,0.052,0.044,0.008,"[0, 1, 2, 3, 4, 12, 10, 11]",8,5,3,10911,24,155,131,none,True,2,11,traffic-light-mouselab,29,671539,5,0,9,11,3,5,30
traffic-light-mouselab,False,3,1,"[10, 11, 12, 13, 14]","[[7, 8, 5, 5, 5], [2, 5, 8, 5, 4], [4, 3, 3, 7, 6]]","[[3, 3, 3, 3, 3], [3, 3, 3, 3, 3], [0, 0, 0, 0, 0]]","[3, 1, 26]",26,32,26,3,0.067,0.06533333333333334,0.0016666666666666668,"[10, 11, 12, 13, 14]",5,5,3,9370,5,202,197,none,False,2,26,traffic-light-mouselab,30,681911,7,1,5,26,5,5,30
traffic-light-mouselab,False,3,1,"[5, 5, 5, 6, 6, 6, 7, 7, 7, 8, 8, 8, 9, 9, 9, 11, 11, 11, 12, 12, 12]","[[1, 7, 5, 1, 7], [4, 6, 6, 5, 5], [5, 2, 7, 5, 6]]","[[1, 1, 1, 1, 1], [0, 0, 0, 0, 0], [3, 0, 0, 3, 3]]","[2, 21, 7]",2,22,27,2,0.062,0.055,0.007,"[5, 6, 7, 8, 9, 11, 12]",7,5,3,10341,21,185,164,none,False,0,2,traffic-light-mouselab,31,693023,5,0,0,2,0,5,30
traffic-light-mouselab,False,3,1,"[0, 0, 0, 1, 1, 1, 2, 2, 2, 3, 3, 3, 4, 4, 4, 13, 13, 13, 12, 12, 12, 10, 10, 10]","[[7, 0, 6, 6, 4], [4, 4, 3, 9, 3], [5, 4, 8, 1, 8]]","[[0, 0, 0, 0, 0], [3, 3, 3, 3, 3], [0, 3, 0, 0, 3]]","[25, 1, 4]",25,30,28,0,0.066,0.058,0.008,"[0, 1, 2, 3, 4, 13, 12, 10]",8,5,3,25243,24,199,175,none,True,0,25,traffic-light-mouselab,32,719164,7,1,15,25,5,5,30
traffic-light-mouselab,False,3,1,"[0, 0, 0, 1, 1, 1, 2, 2, 2, 3, 3, 3, 4, 4, 4, 6, 6, 6, 9, 9, 9]","[[3, 6, 5, 4, 6], [5, 4, 6, 5, 5], [3, 4, 6, 6, 8]]","[[0, 0, 0, 0, 0], [3, 0, 3, 3, 0], [1, 1, 1, 1, 1]]","[14, 12, 4]",4,12,29,4,0.059,0.052,0.007,"[0, 1, 2, 3, 4, 6, 9]",7,5,3,9691,21,176,155,none,False,2,4,traffic-light-mouselab,33,730122,8,1,0,4,0,5,30
traffic-light-mouselab,False,3,1,"[5, 5, 5, 6, 6, 6, 7, 7, 7, 8, 8, 8, 9, 9, 9, 2, 2, 2, 1, 1, 1, 4, 4, 4]","[[7, 7, 7, 5, 1], [3, 6, 7, 3, 6], [6, 4, 5, 7, 4]]","[[3, 0, 0, 3, 0], [0, 0, 0, 0, 0], [3, 3, 3, 3, 3]]","[11, 12, 7]",7,6,30,2,0.065,0.057,0.008,"[5, 6, 7, 8, 9, 2, 1, 4]",8,5,3,10281,24,196,172,none,True,2,7,traffic-light-mouselab,34,741196,5,0,0,7,0,5,30
traffic-light-mouselab,True,3,1,[],"[[6, 5, 4, 6, 5], [2, 4, 4, 6, 5], [6, 6, 5, 5, 3]]","[[3, 3, 3, 3, 3], [3, 3, 3, 3, 3], [3, 3, 3, 3, 3]]","[7, 22, 1]",7,24,1,1,0.043,0.043,0.0,[],0,5,3,43229,0,129,129,none,True,0,7,traffic-light-mouselab,4,389831,5,0,0,7,0,6,30
traffic-light-mouselab,True,3,1,[],"[[7, 8, 6, 3, 3], [4, 5, 6, 6, 2], [2, 8, 4, 4, 6]]","[[3, 3, 3, 3, 3], [3, 3, 3, 3, 3], [1, 1, 1, 1, 1]]","[16, 1, 13]",13,18,2,4,0.043,0.043,0.0,[],0,5,3,24937,0,128,128,none,False,2,13,traffic-light-mouselab,5,420886,6,0,0,13,0,6,30
traffic-light-mouselab,False,3,1,[12],"[[4, 6, 8, 6, 4], [6, 8, 8, 4, 5], [3, 5, 4, 6, 4]]","[[3, 3, 3, 3, 3], [3, 3, 3, 3, 3], [1, 1, 0, 1, 1]]","[8, 20, 2]",2,20,3,4,0.047,0.04666666666666667,0.0003333333333333333,[12],1,5,3,21211,1,140,139,none,False,2,2,traffic-light-mouselab,7,453780,4,0,1,2,1,6,30
traffic-light-mouselab,False,3,1,[7],"[[5, 4, 3, 10, 6], [5, 5, 5, 6, 7], [2, 9, 5, 4, 4]]","[[3, 3, 3, 3, 3], [1, 1, 0, 1, 1], [3, 3, 3, 3, 3]]","[2, 26, 2]",26,32,4,1,0.052,0.051666666666666666,0.0003333333333333333,[7],1,5,3,24749,1,156,155,none,False,1,26,traffic-light-mouselab,8,524792,5,0,1,26,1,6,30
traffic-light-mouselab,False,3,1,[3],"[[6, 5, 4, 6, 3], [7, 5, 3, 7, 5], [5, 6, 5, 3, 7]]","[[1, 1, 1, 0, 1], [3, 3, 3, 3, 3], [3, 3, 3, 3, 3]]","[22, 7, 1]",22,24,5,2,0.038,0.03766666666666667,0.0003333333333333333,[3],1,5,3,21814,1,114,113,none,False,0,22,traffic-light-mouselab,9,551322,4,0,1,22,1,6,30
traffic-light-mouselab,False,3,1,"[0, 3]","[[5, 5, 3, 6, 5], [4, 7, 8, 3, 6], [6, 4, 3, 6, 3]]","[[2, 3, 3, 2, 3], [3, 3, 3, 3, 3], [3, 3, 3, 3, 3]]","[5, 8, 17]",17,14,6,1,0.05,0.04933333333333333,0.0006666666666666666,[],0,5,3,18578,2,149,147,none,True,2,17,traffic-light-mouselab,10,580477,4,0,0,17,0,6,30
traffic-light-mouselab,False,3,1,"[11, 13]","[[7, 2, 3, 6, 9], [8, 7, 4, 6, 5], [6, 5, 8, 4, 7]]","[[3, 3, 3, 3, 3], [3, 3, 3, 3, 3], [1, 0, 1, 0, 1]]","[3, 3, 24]",24,28,7,2,0.071,0.07033333333333333,0.0006666666666666666,"[11, 13]",2,5,3,8915,2,213,211,none,False,2,24,traffic-light-mouselab,11,596014,8,1,2,24,2,6,30
traffic-light-mouselab,False,3,1,[],"[[5, 6, 3, 4, 4], [6, 5, 7, 5, 5], [5, 6, 4, 4, 4]]","[[3, 3, 3, 3, 3], [3, 3, 3, 3, 3], [1, 1, 1, 1, 1]]","[12, 10, 8]",8,4,8,4,0.043,0.043,0.0,[],0,5,3,5539,0,130,130,none,False,2,8,traffic-light-mouselab,12,604537,4,0,0,8,0,6,30
traffic-light-mouselab,False,3,1,[],"[[6, 2, 3, 6, 6], [9, 3, 4, 7, 5], [3, 3, 7, 5, 4]]","[[3, 3, 3, 3, 3], [3, 3, 3, 3, 3], [3, 3, 3, 3, 3]]","[12, 9, 9]",9,4,9,1,0.026,0.026,0.0,[],0,5,3,2633,0,78,78,none,True,1,9,traffic-light-mouselab,13,608993,3,0,0,9,0,6,30
traffic-light-mouselab,False,3,1,[],"[[3, 8, 5, 7, 4], [3, 6, 1, 7, 5], [6, 2, 5, 2, 3]]","[[3, 3, 3, 3, 3], [3, 3, 3, 3, 3], [3, 3, 3, 3, 3]]","[5, 14, 11]",5,10,10,3,0.052,0.052,0.0,[],0,5,3,7850,0,155,155,none,True,0,5,traffic-light-mouselab,14,623027,7,0,0,5,0,6,30
traffic-light-mouselab,False,3,1,[],"[[2, 4, 9, 2, 6], [6, 5, 3, 7, 8], [0, 3, 4, 3, 5]]","[[3, 3, 3, 3, 3], [3, 3, 3, 3, 3], [3, 3, 3, 3, 3]]","[7, 8, 15]",7,10,11,0,0.021,0.021,0.0,[],0,5,3,3370,0,62,62,none,True,0,7,traffic-light-mouselab,15,629606,2,0,0,7,0,6,30
traffic-light-mouselab,False,3,1,[6],"[[5, 7, 4, 7, 6], [3, 8, 4, 7, 5], [5, 7, 5, 5, 4]]","[[3, 3, 3, 3, 3], [1, 0, 1, 1, 1], [3, 3, 3, 3, 3]]","[5, 4, 21]",4,22,12,1,0.071,0.07066666666666666,0.0003333333333333333,[6],1,5,3,4127,1,214,213,none,False,1,4,traffic-light-mouselab,16,637719,8,1,1,4,1,6,30
traffic-light-mouselab,False,3,1,"[8, 5]","[[9, 7, 3, 7, 5], [5, 5, 2, 4, 6], [3, 7, 3, 5, 5]]","[[3, 3, 3, 3, 3], [0, 1, 1, 0, 1], [3, 3, 3, 3, 3]]","[4, 10, 16]",10,12,13,1,0.063,0.06233333333333333,0.0006666666666666666,"[8, 5]",2,5,3,8556,2,190,188,none,False,1,10,traffic-light-mouselab,17,649351,5,0,2,10,2,6,30
traffic-light-mouselab,False,3,1,[],"[[6, 6, 6, 5, 6], [4, 7, 6, 8, 2], [4, 4, 6, 4, 4]]","[[1, 1, 1, 1, 1], [3, 3, 3, 3, 3], [3, 3, 3, 3, 3]]","[6, 23, 1]",6,26,14,2,0.06,0.06,0.0,[],0,5,3,3390,0,180,180,none,False,0,6,traffic-light-mouselab,18,656663,6,1,0,6,0,6,30
traffic-light-mouselab,False,3,1,[],"[[8, 6, 7, 5, 6], [8, 5, 8, 8, 3], [7, 6, 5, 7, 5]]","[[3, 3, 3, 3, 3], [3, 3, 3, 3, 3], [3, 3, 3, 3, 3]]","[1, 18, 11]",11,18,15,3,0.075,0.075,0.0,[],0,5,3,5119,0,226,226,none,True,2,11,traffic-light-mouselab,19,670456,7,1,0,11,0,6,30
traffic-light-mouselab,False,3,1,[10],"[[2, 3, 2, 3, 6], [6, 6, 4, 5, 3], [8, 5, 2, 7, 5]]","[[3, 3, 3, 3, 3], [3, 3, 3, 3, 3], [0, 1, 1, 1, 1]]","[6, 8, 16]",16,12,16,0,0.063,0.06266666666666666,0.0003333333333333333,[10],1,5,3,6429,1,188,187,none,False,2,16,traffic-light-mouselab,20,679585,8,1,1,16,1,6,30
traffic-light-mouselab,False,3,1,[],"[[4, 7, 5, 6, 5], [4, 6, 1, 5, 4], [3, 4, 5, 5, 6]]","[[3, 3, 3, 3, 3], [3, 3, 3, 3, 3], [3, 3, 3, 3, 3]]","[27, 2, 1]",27,34,17,1,0.068,0.068,0.0,[],0,5,3,5940,0,205,205,none,True,0,27,traffic-light-mouselab,21,687941,7,1,0,27,0,6,30
traffic-light-mouselab,False,3,1,[],"[[4, 7, 5, 5, 6], [3, 6, 6, 3, 4], [9, 3, 8, 5, 5]]","[[3, 3, 3, 3, 3], [3, 3, 3, 3, 3], [3, 3, 3, 3, 3]]","[1, 8, 21]",21,22,18,4,0.048,0.048,0.0,[],0,5,3,7073,0,143,143,none,True,2,21,traffic-light-mouselab,22,697882,5,0,0,21,0,6,30
traffic-light-mouselab,False,3,1,[],"[[4, 3, 6, 5, 6], [4, 8, 3, 8, 2], [4, 9, 8, 5, 5]]","[[3, 3, 3, 3, 3], [3, 3, 3, 3, 3], [3, 3, 3, 3, 3]]","[4, 3, 23]",23,26,19,0,0.04,0.04,0.0,[],0,5,3,4303,0,120,120,none,True,2,23,traffic-light-mouselab,23,704302,4,0,0,23,0,6,30
traffic-light-mouselab,False,3,1,"[1, 3]","[[4, 6, 6, 3, 6], [7, 1, 4, 5, 3], [5, 7, 6, 6, 7]]","[[1, 0, 1, 0, 1], [3, 3, 3, 3, 3], [3, 3, 3, 3, 3]]","[20, 8, 2]",20,20,20,1,0.047,0.04633333333333333,0.0006666666666666666,"[1, 3]",2,5,3,7489,2,142,140,none,False,0,20,traffic-light-mouselab,24,714627,6,1,2,20,2,6,30
traffic-light-mouselab,False,3,1,[],"[[6, 5, 5, 2, 5], [7, 3, 8, 3, 5], [5, 3, 6, 4, 1]]","[[3, 3, 3, 3, 3], [3, 3, 3, 3, 3], [3, 3, 3, 3, 3]]","[5, 13, 12]",13,10,21,2,0.067,0.067,0.0,[],0,5,3,7295,0,201,201,none,True,1,13,traffic-light-mouselab,25,725839,8,1,0,13,0,6,30
traffic-light-mouselab,False,3,1,[],"[[6, 3, 3, 4, 6], [4, 6, 6, 9, 10], [6, 4, 5, 5, 4]]","[[3, 3, 3, 3, 3], [3, 3, 3, 3, 3], [3, 3, 3, 3, 3]]","[24, 3, 3]",3,28,22,3,0.046,0.046,0.0,[],0,5,3,8063,0,138,138,none,True,2,3,traffic-light-mouselab,26,736225,5,0,0,3,0,6,30
traffic-light-mouselab,False,3,1,[],"[[6, 8, 6, 4, 3], [3, 5, 4, 4, 6], [5, 7, 6, 7, 8]]","[[3, 3, 3, 3, 3], [3, 3, 3, 3, 3], [3, 3, 3, 3, 3]]","[1, 19, 10]",1,18,23,1,0.058,0.058,0.0,[],0,5,3,11101,0,173,173,none,True,0,1,traffic-light-mouselab,27,751825,8,1,0,1,0,6,30
traffic-light-mouselab,False,3,1,[],"[[6, 5, 3, 5, 4], [4, 4, 4, 3, 4], [7, 4, 6, 3, 3]]","[[3, 3, 3, 3, 3], [3, 3, 3, 3, 3], [3, 3, 3, 3, 3]]","[15, 4, 11]",15,12,24,3,0.04,0.04,0.0,[],0,5,3,5242,0,120,120,none,True,0,15,traffic-light-mouselab,28,760998,5,0,0,15,0,6,30
traffic-light-mouselab,False,3,1,[10],"[[7, 2, 5, 7, 3], [3, 5, 5, 5, 4], [7, 7, 4, 6, 6]]","[[3, 3, 3, 3, 3], [3, 3, 3, 3, 3], [0, 1, 1, 1, 1]]","[5, 11, 14]",14,10,25,0,0.055,0.05466666666666667,0.0003333333333333333,[10],1,5,3,5881,1,166,165,none,False,2,14,traffic-light-mouselab,29,771427,7,1,1,14,1,6,30
traffic-light-mouselab,False,3,1,"[5, 7, 9]","[[8, 6, 4, 7, 6], [2, 6, 4, 3, 6], [4, 6, 5, 4, 4]]","[[3, 3, 3, 3, 3], [0, 1, 0, 1, 0], [3, 3, 3, 3, 3]]","[1, 28, 1]",28,36,26,4,0.059,0.057999999999999996,0.001,"[5, 7, 9]",3,5,3,9939,3,178,175,none,False,1,28,traffic-light-mouselab,30,786851,6,1,3,28,3,6,30
traffic-light-mouselab,False,3,1,[],"[[8, 5, 6, 6, 4], [4, 7, 3, 5, 9], [7, 3, 6, 5, 5]]","[[3, 3, 3, 3, 3], [3, 3, 3, 3, 3], [3, 3, 3, 3, 3]]","[1, 10, 19]",19,18,27,2,0.05,0.05,0.0,[],0,5,3,2495,0,150,150,none,True,2,19,traffic-light-mouselab,31,791704,6,0,0,19,0,6,30
traffic-light-mouselab,False,3,1,"[10, 13]","[[7, 4, 5, 8, 3], [7, 7, 6, 4, 5], [3, 10, 5, 5, 6]]","[[3, 3, 3, 3, 3], [3, 3, 3, 3, 3], [0, 1, 1, 0, 1]]","[9, 9, 12]",12,4,28,2,0.053,0.05233333333333333,0.0006666666666666666,"[10, 13]",2,5,3,11100,2,159,157,none,False,2,12,traffic-light-mouselab,32,805212,5,0,2,12,2,6,30
traffic-light-mouselab,False,3,1,"[11, 14]","[[4, 6, 5, 5, 6], [7, 8, 5, 5, 6], [8, 5, 8, 8, 6]]","[[3, 3, 3, 3, 3], [3, 3, 3, 3, 3], [1, 0, 1, 1, 0]]","[9, 3, 18]",18,16,29,4,0.06,0.05933333333333333,0.0006666666666666666,"[11, 14]",2,5,3,5802,2,180,178,none,False,2,18,traffic-light-mouselab,33,814033,6,0,2,18,2,6,30
traffic-light-mouselab,False,3,1,[],"[[4, 3, 3, 4, 8], [6, 6, 6, 4, 5], [3, 4, 4, 4, 4]]","[[3, 3, 3, 3, 3], [3, 3, 3, 3, 3], [3, 3, 3, 3, 3]]","[1, 25, 4]",25,30,30,2,0.056,0.056,0.0,[],0,5,3,6557,0,169,169,none,True,1,25,traffic-light-mouselab,34,822731,6,1,0,25,0,6,30
traffic-light-mouselab,True,3,1,"[0, 5, 0, 0, 11, 11, 11, 13, 13, 13]","[[6, 4, 6, 4, 5], [2, 2, 6, 2, 5], [5, 5, 4, 7, 3]]","[[0, 3, 3, 3, 3], [0, 1, 1, 1, 1], [3, 0, 3, 0, 3]]","[13, 3, 14]",3,14,1,0,0.051,0.04766666666666666,0.0033333333333333335,"[5, 0, 11, 13]",4,5,3,18430,10,154,144,none,False,1,3,traffic-light-mouselab,4,356279,2,0,1,3,1,7,30
traffic-light-mouselab,True,3,1,"[6, 6, 6, 8, 8, 8, 5, 5, 5, 2, 2, 2, 7, 7, 7, 12, 12, 12]","[[7, 5, 6, 5, 5], [6, 6, 7, 5, 6], [4, 5, 4, 3, 1]]","[[3, 3, 0, 3, 3], [0, 0, 0, 0, 3], [3, 3, 0, 3, 3]]","[5, 23, 2]",2,26,2,2,0.066,0.060000000000000005,0.006,"[6, 8, 5, 2, 7, 12]",6,5,3,12823,18,199,181,none,True,2,2,traffic-light-mouselab,5,375373,4,0,3,2,1,7,30
traffic-light-mouselab,False,3,1,"[6, 8, 1, 1, 1, 11, 11, 11]","[[6, 3, 6, 7, 5], [4, 6, 5, 5, 5], [3, 2, 8, 3, 4]]","[[3, 0, 3, 3, 3], [1, 0, 1, 0, 1], [3, 0, 3, 3, 3]]","[2, 20, 8]",20,20,3,1,0.047,0.044333333333333336,0.0026666666666666666,"[6, 8, 1, 11]",4,5,3,9652,8,142,134,none,False,1,20,traffic-light-mouselab,7,390657,6,1,2,20,2,7,30
traffic-light-mouselab,False,3,1,"[11, 13, 12, 1, 1, 1, 6, 6, 6]","[[6, 5, 6, 3, 5], [4, 8, 5, 3, 9], [4, 7, 4, 7, 4]]","[[3, 0, 3, 3, 3], [3, 0, 3, 3, 3], [1, 0, 0, 0, 1]]","[12, 2, 16]",16,16,4,1,0.063,0.06,0.003,"[11, 13, 12, 1, 6]",5,5,3,6933,9,188,179,none,False,2,16,traffic-light-mouselab,8,399215,7,1,3,16,3,7,30
traffic-light-mouselab,False,3,1,"[12, 10, 13, 7, 7, 7, 2, 2, 2]","[[4, 4, 5, 4, 4], [8, 6, 4, 4, 7], [5, 5, 6, 3, 5]]","[[3, 3, 0, 3, 3], [3, 3, 0, 3, 3], [0, 1, 0, 0, 1]]","[7, 17, 6]",6,14,5,2,0.046,0.043,0.003,"[12, 10, 13, 7, 2]",5,5,3,6697,9,139,130,none,False,2,6,traffic-light-mouselab,9,407058,6,1,3,6,3,7,30
traffic-light-mouselab,False,3,1,"[1, 1, 1, 3, 3, 3, 13, 8, 8, 8]","[[6, 5, 7, 5, 3], [5, 5, 7, 5, 7], [4, 0, 5, 5, 5]]","[[3, 0, 3, 0, 3], [3, 3, 3, 0, 3], [1, 1, 1, 0, 1]]","[19, 3, 8]",8,18,6,3,0.05,0.04666666666666667,0.0033333333333333335,"[1, 3, 13, 8]",4,5,3,6021,10,150,140,none,False,2,8,traffic-light-mouselab,10,414389,5,1,1,8,1,7,30
traffic-light-mouselab,False,3,1,"[1, 3, 2, 0, 5, 5, 5, 10, 10, 10]","[[4, 3, 1, 1, 2], [3, 5, 6, 6, 5], [7, 4, 5, 7, 2]]","[[0, 0, 0, 0, 1], [0, 3, 3, 3, 3], [0, 3, 3, 3, 3]]","[18, 3, 9]",18,16,7,0,0.048,0.04466666666666667,0.0033333333333333335,"[1, 3, 2, 0, 5, 10]",6,5,3,6163,10,144,134,none,False,0,18,traffic-light-mouselab,11,421658,4,1,4,18,4,7,30
traffic-light-mouselab,False,3,1,"[6, 6, 6, 7, 7, 7, 1, 1, 1, 11, 11, 11]","[[8, 1, 6, 6, 4], [4, 5, 5, 3, 3], [7, 6, 4, 6, 4]]","[[3, 0, 3, 3, 3], [3, 0, 0, 3, 3], [3, 0, 3, 3, 3]]","[4, 17, 9]",17,14,8,1,0.048,0.044,0.004,"[6, 7, 1, 11]",4,5,3,6881,12,143,131,none,True,1,17,traffic-light-mouselab,12,429544,5,1,6,17,2,7,30
traffic-light-mouselab,False,3,1,"[8, 3, 3, 3, 13, 13, 13]","[[4, 4, 5, 6, 4], [8, 3, 10, 6, 6], [8, 8, 8, 8, 7]]","[[3, 3, 3, 0, 3], [1, 1, 1, 0, 1], [3, 3, 3, 0, 3]]","[9, 10, 11]",10,2,9,3,0.067,0.06466666666666666,0.0023333333333333335,"[8, 3, 13]",3,5,3,4527,7,202,195,none,False,1,10,traffic-light-mouselab,13,435420,6,0,1,10,1,7,30
traffic-light-mouselab,False,3,1,"[5, 5, 5, 9, 9, 9, 4, 4, 4, 14, 14, 14]","[[5, 4, 7, 6, 4], [4, 4, 8, 2, 5], [5, 6, 6, 7, 4]]","[[3, 3, 3, 3, 0], [0, 3, 3, 3, 0], [3, 3, 3, 3, 0]]","[9, 19, 2]",9,18,10,4,0.046,0.041999999999999996,0.004,"[5, 9, 4, 14]",4,5,3,5460,12,139,127,none,True,0,9,traffic-light-mouselab,14,441769,4,0,3,9,1,7,30
traffic-light-mouselab,False,3,1,"[0, 0, 0, 1, 1, 5, 5, 5, 10, 10, 10]","[[8, 5, 5, 6, 5], [4, 4, 4, 5, 7], [2, 2, 6, 4, 6]]","[[0, 1, 3, 3, 3], [0, 3, 3, 3, 3], [0, 3, 3, 3, 3]]","[21, 4, 5]",21,22,11,0,0.065,0.06133333333333334,0.0036666666666666666,"[0, 5, 10]",3,5,3,4107,11,194,183,none,True,0,21,traffic-light-mouselab,15,446948,8,1,5,21,1,7,30
traffic-light-mouselab,False,3,1,"[6, 6, 6, 8, 8, 8, 3, 13, 13, 13]","[[4, 4, 8, 4, 6], [9, 3, 4, 5, 9], [6, 0, 7, 5, 8]]","[[1, 1, 1, 0, 1], [3, 0, 3, 0, 3], [3, 3, 3, 0, 3]]","[2, 27, 1]",2,34,12,3,0.049,0.04566666666666667,0.0033333333333333335,"[6, 8, 3, 13]",4,5,3,6056,10,148,138,none,False,0,2,traffic-light-mouselab,16,453960,4,0,1,2,1,7,30
traffic-light-mouselab,False,3,1,"[0, 3, 2, 1, 6, 6, 6, 11, 11, 11]","[[4, 9, 5, 3, 4], [2, 5, 6, 3, 5], [6, 3, 5, 6, 4]]","[[0, 0, 0, 0, 1], [3, 0, 3, 3, 3], [3, 0, 3, 3, 3]]","[22, 7, 1]",22,24,13,1,0.079,0.07566666666666667,0.0033333333333333335,"[0, 3, 2, 1, 6, 11]",6,5,3,5106,10,236,226,none,False,0,22,traffic-light-mouselab,17,460347,9,1,4,22,4,7,30
traffic-light-mouselab,False,3,1,"[4, 4, 4, 2, 2, 2, 1, 1, 1, 6, 6, 6, 11, 11, 11]","[[4, 7, 4, 4, 6], [4, 6, 4, 5, 7], [4, 4, 3, 7, 7]]","[[3, 0, 0, 3, 0], [3, 0, 3, 3, 3], [3, 0, 3, 3, 3]]","[19, 6, 5]",19,18,14,1,0.063,0.058,0.005,"[4, 2, 1, 6, 11]",5,5,3,6222,15,189,174,none,True,0,19,traffic-light-mouselab,18,467257,7,1,9,19,3,7,30
traffic-light-mouselab,False,3,1,"[11, 11, 11, 13, 13, 13, 12, 12, 12, 7, 7, 7, 2, 2, 2]","[[4, 7, 5, 4, 6], [7, 4, 4, 5, 6], [6, 6, 7, 5, 3]]","[[3, 3, 0, 3, 3], [3, 3, 0, 3, 3], [3, 0, 0, 0, 3]]","[1, 9, 20]",1,20,15,2,0.06,0.055,0.005,"[11, 13, 12, 7, 2]",5,5,3,6098,15,181,166,none,True,0,1,traffic-light-mouselab,19,474175,5,0,3,1,1,7,30
traffic-light-mouselab,False,3,1,"[5, 5, 5, 9, 9, 9, 4, 4, 4, 14, 14, 14]","[[7, 4, 7, 3, 8], [5, 8, 1, 4, 7], [4, 4, 4, 7, 8]]","[[3, 3, 3, 3, 0], [0, 3, 3, 3, 0], [3, 3, 3, 3, 0]]","[3, 25, 2]",25,30,16,4,0.072,0.06799999999999999,0.004,"[5, 9, 4, 14]",4,5,3,4987,12,215,203,none,True,1,25,traffic-light-mouselab,20,480040,7,0,6,25,2,7,30
traffic-light-mouselab,False,3,1,"[0, 0, 0, 2, 2, 2, 4, 4, 4, 9, 9, 9, 14, 14, 14]","[[4, 4, 1, 4, 6], [5, 4, 3, 4, 5], [4, 6, 8, 3, 7]]","[[0, 3, 0, 3, 0], [3, 3, 3, 3, 0], [3, 3, 3, 3, 0]]","[23, 4, 3]",23,26,17,4,0.06,0.055,0.005,"[0, 2, 4, 9, 14]",5,5,3,6049,15,179,164,none,True,0,23,traffic-light-mouselab,21,486768,6,1,9,23,3,7,30
traffic-light-mouselab,False,3,1,"[11, 11, 11, 13, 13, 13, 12, 12, 12, 7, 7, 7, 2, 2, 2]","[[6, 6, 6, 6, 3], [4, 6, 7, 5, 9], [6, 3, 5, 4, 8]]","[[3, 3, 0, 3, 3], [3, 3, 0, 3, 3], [3, 0, 0, 0, 3]]","[11, 4, 15]",15,12,18,2,0.056,0.051000000000000004,0.005,"[11, 13, 12, 7, 2]",5,5,3,5523,15,169,154,none,True,2,15,traffic-light-mouselab,22,493236,5,0,9,15,3,7,30
traffic-light-mouselab,False,3,1,"[5, 7, 8, 9, 4, 4, 4, 14, 14, 14]","[[5, 6, 7, 5, 4], [5, 5, 3, 5, 6], [4, 4, 4, 5, 3]]","[[3, 3, 3, 3, 0], [0, 1, 0, 0, 0], [3, 3, 3, 3, 0]]","[8, 12, 10]",12,4,19,4,0.045,0.041666666666666664,0.0033333333333333335,"[5, 7, 8, 9, 4, 14]",6,5,3,5554,10,134,124,none,False,1,12,traffic-light-mouselab,23,499464,6,1,4,12,4,7,30
traffic-light-mouselab,False,3,1,"[10, 11, 12, 13, 14, 7, 7, 7, 2, 2, 2]","[[6, 1, 4, 5, 5], [5, 5, 5, 5, 4], [4, 6, 6, 3, 3]]","[[3, 3, 0, 3, 3], [3, 3, 0, 3, 3], [0, 0, 0, 0, 0]]","[3, 1, 26]",26,32,20,2,0.058,0.05433333333333334,0.0036666666666666666,"[10, 11, 12, 13, 14, 7, 2]",7,5,3,4553,11,173,162,none,False,2,26,traffic-light-mouselab,24,504876,6,1,5,26,5,7,30
traffic-light-mouselab,False,3,1,"[10, 10, 10, 5, 5, 5]","[[9, 3, 6, 5, 4], [0, 7, 5, 4, 5], [7, 5, 9, 6, 9]]","[[3, 3, 3, 3, 3], [0, 3, 3, 3, 3], [0, 3, 3, 3, 3]]","[2, 7, 21]",7,22,21,0,0.055,0.053,0.002,"[10, 5]",2,5,3,2930,6,165,159,none,True,1,7,traffic-light-mouselab,25,512977,0,0,3,7,1,7,30
traffic-light-mouselab,False,3,1,"[6, 6, 6, 5, 5, 5, 7, 7, 7, 8, 8, 8, 9, 9, 9]","[[5, 8, 4, 5, 5], [4, 5, 5, 3, 2], [3, 7, 3, 7, 4]]","[[3, 3, 3, 3, 3], [0, 0, 0, 0, 0], [3, 3, 3, 3, 3]]","[13, 13, 4]",13,12,22,1,0.066,0.061000000000000006,0.005,"[6, 5, 7, 8, 9]",5,5,3,7967,15,197,182,none,True,1,13,traffic-light-mouselab,26,521869,5,1,15,13,5,7,30
traffic-light-mouselab,False,3,1,"[11, 11, 11, 12, 12, 12, 14, 14, 14]","[[7, 5, 7, 4, 4], [6, 7, 6, 6, 5], [5, 1, 3, 2, 6]]","[[3, 3, 3, 3, 3], [3, 3, 3, 3, 3], [3, 0, 0, 3, 0]]","[8, 5, 17]",5,14,23,4,0.053,0.049999999999999996,0.003,"[11, 12, 14]",3,5,3,4926,9,159,150,none,True,1,5,traffic-light-mouselab,27,527509,5,0,0,5,0,7,30
traffic-light-mouselab,False,3,1,[10],"[[7, 5, 5, 7, 6], [6, 7, 3, 6, 5], [8, 4, 6, 5, 3]]","[[3, 3, 3, 3, 3], [3, 3, 3, 3, 3], [0, 1, 1, 1, 1]]","[1, 5, 24]",24,28,24,0,0.076,0.07566666666666666,0.0003333333333333333,[10],1,5,3,2337,1,229,228,none,False,2,24,traffic-light-mouselab,28,530504,8,1,1,24,1,7,30
traffic-light-mouselab,False,3,1,"[11, 11, 11, 13, 13, 13, 14, 14, 14]","[[7, 6, 3, 6, 2], [5, 6, 5, 5, 3], [3, 3, 7, 6, 4]]","[[3, 3, 3, 3, 3], [3, 3, 3, 3, 3], [3, 0, 3, 0, 0]]","[11, 7, 12]",11,6,25,3,0.058,0.055,0.003,"[11, 13, 14]",3,5,3,4224,9,173,164,none,True,0,11,traffic-light-mouselab,29,535378,6,0,0,11,0,7,30
traffic-light-mouselab,False,3,1,"[11, 11, 11, 13, 13, 13]","[[0, 6, 3, 9, 5], [4, 7, 3, 5, 6], [5, 5, 6, 8, 7]]","[[3, 3, 3, 3, 3], [1, 1, 1, 1, 1], [3, 0, 3, 0, 3]]","[3, 4, 23]",4,26,26,3,0.077,0.075,0.002,"[11, 13]",2,5,3,3870,6,231,225,none,False,1,4,traffic-light-mouselab,30,539812,5,0,0,4,0,7,30
traffic-light-mouselab,False,3,1,"[10, 11, 12, 13, 14]","[[4, 4, 5, 4, 3], [8, 3, 3, 4, 5], [5, 5, 6, 2, 6]]","[[3, 3, 3, 3, 3], [3, 3, 3, 3, 3], [0, 0, 0, 0, 0]]","[1, 1, 28]",28,36,27,2,0.059,0.05733333333333333,0.0016666666666666668,"[10, 11, 12, 13, 14]",5,5,3,5133,5,176,171,none,False,2,28,traffic-light-mouselab,31,545524,6,1,5,28,5,7,30
traffic-light-mouselab,False,3,1,"[6, 8, 9, 7, 5]","[[1, 2, 4, 3, 5], [6, 4, 6, 3, 4], [5, 3, 5, 3, 8]]","[[3, 3, 3, 3, 3], [0, 0, 0, 0, 0], [3, 3, 3, 3, 3]]","[8, 14, 8]",14,8,28,2,0.052,0.050333333333333334,0.0016666666666666668,"[6, 8, 9, 7, 5]",5,5,3,4277,5,156,151,none,False,1,14,traffic-light-mouselab,32,550392,6,1,5,14,5,7,30
traffic-light-mouselab,False,3,1,"[11, 11, 11]","[[6, 5, 4, 8, 2], [5, 5, 5, 6, 6], [5, 7, 3, 5, 6]]","[[3, 3, 3, 3, 3], [3, 3, 3, 3, 3], [3, 0, 3, 3, 3]]","[3, 5, 22]",3,24,29,1,0.065,0.064,0.001,[11],1,5,3,2216,3,194,191,none,True,0,3,traffic-light-mouselab,33,553202,5,0,0,3,0,7,30
traffic-light-mouselab,False,3,1,"[8, 8, 8]","[[1, 2, 8, 5, 3], [5, 4, 3, 7, 4], [5, 7, 4, 6, 2]]","[[3, 3, 3, 3, 3], [3, 3, 3, 0, 3], [3, 3, 3, 3, 3]]","[1, 27, 2]",27,34,30,3,0.069,0.068,0.001,[8],1,5,3,2671,3,206,203,none,True,1,27,traffic-light-mouselab,34,556512,7,1,3,27,1,7,30
traffic-light-mouselab,True,3,1,"[1, 1, 1, 12, 12, 12, 9, 9, 9, 5, 5, 5, 0, 0, 0]","[[3, 7, 4, 4, 4], [7, 6, 5, 3, 6], [7, 4, 6, 5, 9]]","[[0, 0, 3, 3, 3], [0, 3, 3, 3, 0], [3, 3, 0, 3, 3]]","[15, 6, 9]",6,10,1,1,0.059,0.054,0.005,"[1, 12, 9, 5, 0]",5,5,3,15483,15,177,162,none,True,1,6,traffic-light-mouselab,4,118777,6,0,6,6,2,8,30
traffic-light-mouselab,True,3,1,"[1, 2, 3, 4, 0, 7, 7, 7, 9, 9, 9, 12, 12, 12, 14, 14, 14]","[[7, 5, 8, 7, 8], [3, 3, 3, 2, 3], [4, 4, 2, 5, 7]]","[[0, 0, 0, 0, 0], [3, 3, 0, 3, 0], [3, 3, 0, 3, 0]]","[3, 14, 13]",3,14,2,4,0.052,0.04633333333333333,0.005666666666666667,"[1, 2, 3, 4, 0, 7, 9, 12, 14]",9,5,3,12951,17,157,140,none,False,0,3,traffic-light-mouselab,5,133427,8,1,5,3,5,8,30
traffic-light-mouselab,False,3,1,"[10, 10, 10, 13, 13, 13]","[[7, 6, 8, 8, 6], [5, 4, 4, 5, 4], [3, 4, 5, 7, 4]]","[[3, 3, 3, 3, 3], [3, 3, 3, 3, 3], [0, 3, 3, 0, 3]]","[2, 1, 27]",27,34,3,3,0.07,0.068,0.002,"[10, 13]",2,5,3,15444,6,210,204,none,True,2,27,traffic-light-mouselab,7,157657,7,1,6,27,2,8,30
traffic-light-mouselab,False,3,1,"[10, 12, 14, 11, 13]","[[5, 3, 5, 3, 2], [4, 4, 4, 3, 3], [4, 4, 3, 6, 4]]","[[3, 3, 3, 3, 3], [3, 3, 3, 3, 3], [0, 0, 0, 0, 0]]","[4, 2, 24]",24,28,4,3,0.054,0.052333333333333336,0.0016666666666666668,"[10, 12, 14, 11, 13]",5,5,3,9691,5,162,157,none,False,2,24,traffic-light-mouselab,8,169633,6,1,5,24,5,8,30
traffic-light-mouselab,False,3,1,[],"[[4, 7, 6, 4, 4], [5, 2, 4, 5, 5], [7, 5, 5, 5, 4]]","[[3, 3, 3, 3, 3], [3, 3, 3, 3, 3], [3, 3, 3, 3, 3]]","[11, 7, 12]",7,6,5,2,0.051,0.051,0.0,[],0,5,3,7187,0,154,154,none,True,1,7,traffic-light-mouselab,9,188164,4,0,0,7,0,8,30
traffic-light-mouselab,False,3,1,"[11, 14, 13, 10, 12]","[[5, 3, 4, 2, 6], [5, 3, 7, 5, 6], [6, 4, 4, 6, 5]]","[[3, 3, 3, 3, 3], [3, 3, 3, 3, 3], [0, 0, 0, 0, 0]]","[6, 14, 10]",10,8,6,3,0.047,0.04533333333333334,0.0016666666666666668,"[11, 14, 13, 10, 12]",5,5,3,9605,5,142,137,none,False,2,10,traffic-light-mouselab,10,200342,6,1,5,10,5,8,30
traffic-light-mouselab,False,3,1,"[1, 1, 1]","[[7, 7, 3, 7, 6], [6, 6, 4, 3, 7], [7, 5, 7, 4, 7]]","[[3, 0, 3, 3, 3], [1, 1, 1, 1, 1], [3, 3, 3, 3, 3]]","[23, 6, 1]",6,26,7,1,0.067,0.066,0.001,[1],1,5,3,16542,3,202,199,none,False,1,6,traffic-light-mouselab,11,219513,6,0,0,6,0,8,30
traffic-light-mouselab,False,3,1,[],"[[8, 6, 4, 2, 6], [4, 6, 9, 5, 7], [4, 4, 4, 7, 0]]","[[3, 3, 3, 3, 3], [3, 3, 3, 3, 3], [3, 3, 3, 3, 3]]","[3, 17, 10]",17,14,8,3,0.054,0.054,0.0,[],0,5,3,3051,0,161,161,none,True,1,17,traffic-light-mouselab,12,224633,5,0,0,17,0,8,30
traffic-light-mouselab,False,3,1,"[3, 0, 4]","[[5, 5, 6, 6, 5], [4, 7, 7, 5, 7], [5, 4, 2, 6, 5]]","[[0, 1, 1, 0, 0], [3, 3, 3, 3, 3], [3, 3, 3, 3, 3]]","[26, 3, 1]",26,32,9,3,0.059,0.057999999999999996,0.001,"[3, 0, 4]",3,5,3,7945,3,177,174,none,False,0,26,traffic-light-mouselab,13,233797,6,1,3,26,3,8,30
traffic-light-mouselab,False,3,1,[],"[[5, 1, 8, 5, 3], [5, 5, 4, 9, 9], [8, 5, 7, 4, 3]]","[[3, 3, 3, 3, 3], [3, 3, 3, 3, 3], [3, 3, 3, 3, 3]]","[10, 1, 19]",1,18,10,1,0.037,0.037,0.0,[],0,5,3,2313,0,110,110,none,True,1,1,traffic-light-mouselab,14,242717,5,0,0,1,0,8,30
traffic-light-mouselab,False,3,1,"[3, 3, 3]","[[1, 6, 8, 7, 3], [7, 6, 4, 7, 5], [5, 6, 3, 4, 5]]","[[3, 3, 3, 0, 3], [3, 3, 3, 3, 3], [3, 3, 3, 3, 3]]","[25, 4, 1]",25,30,11,3,0.069,0.068,0.001,[3],1,5,3,4173,3,207,204,none,True,0,25,traffic-light-mouselab,15,248757,7,0,3,25,1,8,30
traffic-light-mouselab,False,3,1,"[0, 4, 2]","[[4, 4, 4, 4, 5], [4, 7, 7, 4, 4], [5, 6, 3, 5, 6]]","[[0, 1, 0, 1, 0], [3, 3, 3, 3, 3], [3, 3, 3, 3, 3]]","[22, 7, 1]",22,24,12,4,0.048,0.047,0.001,"[0, 4, 2]",3,5,3,5680,3,144,141,none,False,0,22,traffic-light-mouselab,16,255429,5,1,3,22,3,8,30
traffic-light-mouselab,False,3,1,"[1, 4, 2, 3]","[[7, 5, 4, 7, 5], [5, 4, 8, 6, 3], [6, 6, 6, 4, 6]]","[[1, 0, 0, 0, 0], [3, 3, 3, 3, 3], [3, 3, 3, 3, 3]]","[18, 7, 5]",18,16,13,3,0.063,0.06166666666666667,0.0013333333333333333,"[1, 4, 2, 3]",4,5,3,6441,4,188,184,none,False,0,18,traffic-light-mouselab,17,263055,7,1,4,18,4,8,30
traffic-light-mouselab,False,3,1,[],"[[8, 3, 4, 5, 5], [6, 5, 4, 6, 5], [4, 8, 4, 4, 8]]","[[3, 3, 3, 3, 3], [3, 3, 3, 3, 3], [1, 1, 1, 1, 1]]","[10, 18, 2]",2,16,14,4,0.052,0.052,0.0,[],0,5,3,4775,0,156,156,none,False,2,2,traffic-light-mouselab,18,269577,8,1,0,2,0,8,30
traffic-light-mouselab,False,3,1,[],"[[6, 5, 4, 2, 5], [1, 3, 6, 4, 5], [4, 5, 5, 4, 7]]","[[3, 3, 3, 3, 3], [3, 3, 3, 3, 3], [3, 3, 3, 3, 3]]","[1, 13, 16]",13,18,15,1,0.041,0.041,0.0,[],0,5,3,8169,0,124,124,none,True,1,13,traffic-light-mouselab,19,278997,3,0,0,13,0,8,30
traffic-light-mouselab,False,3,1,[10],"[[6, 5, 3, 3, 6], [4, 6, 7, 7, 7], [7, 2, 7, 6, 4]]","[[3, 3, 3, 3, 3], [3, 3, 3, 3, 3], [0, 1, 1, 1, 1]]","[12, 2, 16]",16,16,16,0,0.064,0.06366666666666666,0.0003333333333333333,[10],1,5,3,2616,1,192,191,none,False,2,16,traffic-light-mouselab,20,282673,7,1,1,16,1,8,30
traffic-light-mouselab,False,3,1,"[1, 4]","[[6, 5, 6, 5, 7], [7, 4, 6, 3, 5], [5, 4, 4, 7, 6]]","[[1, 0, 1, 1, 0], [3, 3, 3, 3, 3], [3, 3, 3, 3, 3]]","[20, 4, 6]",20,20,17,4,0.065,0.06433333333333334,0.0006666666666666666,"[1, 4]",2,5,3,4557,2,196,194,none,False,0,20,traffic-light-mouselab,21,288881,7,1,2,20,2,8,30
traffic-light-mouselab,False,3,1,"[14, 14, 14]","[[2, 5, 4, 6, 7], [7, 5, 6, 7, 4], [4, 1, 7, 5, 7]]","[[3, 3, 3, 3, 3], [3, 3, 3, 3, 3], [3, 3, 3, 3, 0]]","[11, 3, 16]",11,14,18,4,0.067,0.066,0.001,[14],1,5,3,4269,3,201,198,none,True,0,11,traffic-light-mouselab,22,294129,7,1,0,11,0,8,30
traffic-light-mouselab,False,3,1,"[6, 8]","[[5, 6, 5, 6, 9], [6, 4, 4, 6, 5], [6, 7, 3, 4, 7]]","[[3, 3, 3, 3, 3], [1, 0, 1, 0, 1], [3, 3, 3, 3, 3]]","[6, 14, 10]",14,8,19,3,0.053,0.05233333333333333,0.0006666666666666666,"[6, 8]",2,5,3,3331,2,160,158,none,False,1,14,traffic-light-mouselab,23,298567,6,1,2,14,2,8,30
traffic-light-mouselab,False,3,1,"[0, 0, 0, 3, 3, 3, 4, 4, 4]","[[4, 8, 6, 3, 6], [4, 3, 4, 4, 5], [7, 5, 4, 5, 2]]","[[0, 3, 3, 0, 0], [3, 3, 3, 3, 3], [3, 3, 3, 3, 3]]","[23, 3, 4]",23,26,20,4,0.054,0.051,0.003,"[0, 3, 4]",3,5,3,6479,9,161,152,none,True,0,23,traffic-light-mouselab,24,306945,6,0,9,23,3,8,30
traffic-light-mouselab,False,3,1,"[12, 14, 10, 11, 13]","[[2, 4, 4, 6, 6], [6, 5, 3, 2, 2], [4, 3, 3, 5, 5]]","[[3, 3, 3, 3, 3], [3, 3, 3, 3, 3], [0, 0, 0, 0, 0]]","[1, 1, 28]",28,36,21,3,0.049,0.04733333333333334,0.0016666666666666668,"[12, 14, 10, 11, 13]",5,5,3,6695,5,148,143,none,False,2,28,traffic-light-mouselab,25,314891,5,1,5,28,5,8,30
traffic-light-mouselab,False,3,1,[],"[[3, 3, 2, 6, 5], [5, 5, 3, 7, 1], [5, 4, 2, 5, 5]]","[[3, 3, 3, 3, 3], [3, 3, 3, 3, 3], [3, 3, 3, 3, 3]]","[7, 3, 20]",3,20,22,4,0.046,0.046,0.0,[],0,5,3,2467,0,138,138,none,True,1,3,traffic-light-mouselab,26,318577,1,0,0,3,0,8,30
traffic-light-mouselab,False,3,1,[],"[[5, 6, 4, 4, 4], [5, 3, 6, 5, 7], [5, 7, 5, 10, 6]]","[[3, 3, 3, 3, 3], [3, 3, 3, 3, 3], [3, 3, 3, 3, 3]]","[6, 21, 3]",21,22,23,1,0.04,0.04,0.0,[],0,5,3,3284,0,120,120,none,True,1,21,traffic-light-mouselab,27,322967,3,0,0,21,0,8,30
traffic-light-mouselab,False,3,1,[6],"[[8, 2, 3, 3, 5], [4, 7, 7, 4, 6], [5, 4, 9, 5, 2]]","[[3, 3, 3, 3, 3], [1, 0, 1, 1, 1], [3, 3, 3, 3, 3]]","[12, 12, 6]",12,8,24,1,0.044,0.043666666666666666,0.0003333333333333333,[6],1,5,3,2771,1,132,131,none,False,1,12,traffic-light-mouselab,28,326861,7,1,1,12,1,8,30
traffic-light-mouselab,False,3,1,"[7, 7, 7]","[[7, 5, 7, 3, 7], [2, 2, 6, 5, 7], [0, 3, 7, 6, 2]]","[[3, 3, 3, 3, 3], [3, 3, 0, 3, 3], [3, 3, 3, 3, 3]]","[14, 15, 1]",15,18,25,2,0.065,0.064,0.001,[7],1,5,3,2827,3,195,192,none,True,1,15,traffic-light-mouselab,29,330561,6,0,3,15,1,8,30
traffic-light-mouselab,False,3,1,"[11, 11, 11]","[[5, 8, 5, 6, 3], [6, 7, 8, 6, 3], [5, 6, 3, 9, 4]]","[[3, 3, 3, 3, 3], [3, 3, 3, 3, 3], [3, 0, 3, 3, 3]]","[5, 2, 23]",5,26,26,1,0.064,0.063,0.001,[11],1,5,3,3909,3,192,189,none,True,0,5,traffic-light-mouselab,30,335433,8,1,0,5,0,8,30
traffic-light-mouselab,False,3,1,"[10, 10, 10]","[[6, 2, 4, 5, 7], [5, 4, 9, 7, 4], [6, 5, 3, 5, 5]]","[[3, 3, 3, 3, 3], [3, 3, 3, 3, 3], [0, 3, 3, 3, 3]]","[9, 1, 20]",9,20,27,0,0.06,0.059,0.001,[10],1,5,3,2682,3,179,176,none,True,0,9,traffic-light-mouselab,31,338821,6,0,0,9,0,8,30
traffic-light-mouselab,False,3,1,"[8, 8, 8]","[[6, 6, 2, 7, 5], [5, 5, 5, 3, 4], [5, 5, 6, 4, 6]]","[[3, 3, 3, 3, 3], [3, 3, 3, 0, 3], [3, 3, 3, 3, 3]]","[5, 19, 6]",19,18,28,1,0.052,0.051,0.001,[8],1,5,3,5438,3,155,152,none,True,1,19,traffic-light-mouselab,32,345797,5,1,3,19,1,8,30
traffic-light-mouselab,False,3,1,[6],"[[4, 6, 6, 2, 4], [7, 7, 8, 5, 4], [7, 4, 4, 5, 9]]","[[3, 3, 3, 3, 3], [1, 0, 1, 1, 1], [3, 3, 3, 3, 3]]","[15, 8, 7]",8,10,29,1,0.058,0.05766666666666667,0.0003333333333333333,[6],1,5,3,2514,1,174,173,none,False,1,8,traffic-light-mouselab,33,349659,7,0,1,8,1,8,30
traffic-light-mouselab,False,3,1,[],"[[8, 3, 3, 6, 1], [8, 7, 6, 5, 6], [5, 7, 9, 6, 5]]","[[1, 1, 1, 1, 1], [3, 3, 3, 3, 3], [3, 3, 3, 3, 3]]","[4, 6, 20]",4,20,30,0,0.06,0.06,0.0,[],0,5,3,3059,0,180,180,none,False,0,4,traffic-light-mouselab,34,353857,8,1,0,4,0,8,30
traffic-light-mouselab,True,3,1,[],"[[7, 4, 3, 6, 5], [7, 4, 5, 5, 5], [4, 5, 6, 3, 4]]","[[3, 3, 3, 3, 3], [1, 1, 1, 1, 1], [3, 3, 3, 3, 3]]","[11, 3, 16]",3,14,1,3,0.043,0.043,0.0,[],0,5,3,11456,0,129,129,none,False,1,3,traffic-light-mouselab,4,169593,5,0,0,3,0,9,30
traffic-light-mouselab,True,3,1,"[0, 0, 0, 7, 7, 7, 10, 10, 10, 9, 9, 9]","[[3, 3, 4, 5, 3], [10, 5, 6, 3, 4], [3, 7, 4, 5, 5]]","[[0, 3, 3, 3, 3], [3, 3, 0, 3, 0], [0, 3, 3, 3, 3]]","[10, 13, 7]",10,6,2,1,0.048,0.044,0.004,"[0, 7, 10, 9]",4,5,3,32486,12,144,132,none,True,0,10,traffic-light-mouselab,5,213714,3,0,3,10,1,9,30
traffic-light-mouselab,False,3,1,"[6, 6, 6, 9, 9, 9]","[[6, 6, 5, 5, 3], [5, 4, 6, 6, 4], [7, 4, 6, 5, 4]]","[[3, 3, 3, 3, 3], [3, 0, 3, 3, 0], [3, 3, 3, 3, 3]]","[10, 19, 1]",1,18,3,3,0.056,0.054,0.002,"[6, 9]",2,5,3,15727,6,169,163,none,True,2,1,traffic-light-mouselab,7,236271,5,0,0,1,0,9,30
traffic-light-mouselab,False,3,1,"[6, 6, 6, 5, 5, 5]","[[7, 5, 5, 4, 6], [7, 4, 4, 5, 2], [8, 5, 5, 5, 4]]","[[3, 3, 3, 3, 3], [0, 0, 3, 3, 3], [1, 1, 1, 1, 1]]","[7, 21, 2]",2,22,4,4,0.031,0.028999999999999998,0.002,"[6, 5]",2,5,3,12349,6,92,86,none,False,2,2,traffic-light-mouselab,8,252983,4,0,0,2,0,9,30
traffic-light-mouselab,False,3,1,"[5, 5, 5, 9, 9, 9, 8, 8, 8]","[[5, 6, 6, 7, 5], [6, 7, 5, 8, 4], [5, 4, 2, 1, 6]]","[[3, 3, 3, 3, 3], [0, 3, 3, 0, 0], [3, 3, 3, 3, 3]]","[4, 21, 5]",21,22,5,1,0.064,0.061,0.003,"[5, 9, 8]",3,5,3,15200,9,191,182,none,True,1,21,traffic-light-mouselab,9,272289,7,0,9,21,3,9,30
traffic-light-mouselab,False,3,1,"[4, 4, 4, 10, 10, 10, 1, 1, 1, 2, 2, 2]","[[4, 4, 3, 5, 6], [4, 6, 6, 5, 4], [7, 5, 6, 5, 4]]","[[3, 0, 0, 3, 0], [3, 3, 3, 3, 3], [0, 3, 3, 3, 3]]","[15, 4, 11]",11,12,6,3,0.05,0.046,0.004,"[4, 10, 1, 2]",4,5,3,17086,12,150,138,none,True,2,11,traffic-light-mouselab,10,298039,5,0,3,11,1,9,30
traffic-light-mouselab,False,3,1,"[6, 6, 6, 9, 9, 9]","[[2, 7, 9, 5, 4], [6, 4, 6, 3, 4], [6, 7, 4, 3, 5]]","[[3, 3, 3, 3, 3], [3, 0, 3, 3, 0], [3, 3, 3, 3, 3]]","[1, 19, 10]",19,18,7,0,0.059,0.056999999999999995,0.002,"[6, 9]",2,5,3,11681,6,176,170,none,True,1,19,traffic-light-mouselab,11,313607,6,1,6,19,2,9,30
traffic-light-mouselab,False,3,1,"[2, 2, 2, 2, 0, 0, 0]","[[5, 7, 9, 5, 4], [8, 7, 7, 6, 6], [2, 6, 7, 6, 2]]","[[0, 3, 0, 3, 3], [3, 3, 3, 3, 3], [3, 3, 3, 3, 3]]","[24, 3, 3]",3,28,8,1,0.069,0.067,0.002,"[2, 0]",2,5,3,13967,6,207,201,none,True,2,3,traffic-light-mouselab,12,331876,6,0,0,3,0,9,30
traffic-light-mouselab,False,3,1,"[5, 6, 7, 8, 9]","[[5, 8, 6, 6, 3], [6, 6, 4, 4, 4], [4, 4, 6, 4, 2]]","[[3, 3, 3, 3, 3], [0, 0, 0, 0, 0], [3, 3, 3, 3, 3]]","[7, 10, 13]",10,6,9,4,0.029,0.027333333333333334,0.0016666666666666668,"[5, 6, 7, 8, 9]",5,5,3,9141,5,87,82,none,False,1,10,traffic-light-mouselab,13,346654,4,0,5,10,5,9,30
traffic-light-mouselab,False,3,1,"[5, 5, 5, 6, 6, 6, 8, 8, 8]","[[3, 7, 5, 7, 6], [6, 7, 8, 6, 3], [4, 6, 7, 5, 5]]","[[3, 3, 3, 3, 3], [0, 0, 3, 0, 3], [3, 3, 3, 3, 3]]","[7, 15, 8]",15,10,10,2,0.07,0.067,0.003,"[5, 6, 8]",3,5,3,10898,9,211,202,none,True,1,15,traffic-light-mouselab,14,359926,8,1,9,15,3,9,30
traffic-light-mouselab,False,3,1,"[9, 9, 9, 7, 7, 7, 11, 11, 11, 12, 12, 12]","[[2, 6, 6, 7, 2], [7, 4, 4, 5, 2], [3, 1, 7, 6, 8]]","[[3, 3, 3, 3, 3], [3, 3, 0, 3, 0], [3, 0, 0, 3, 3]]","[1, 17, 12]",17,18,11,3,0.055,0.051000000000000004,0.004,"[9, 7, 11, 12]",4,5,3,13913,12,164,152,none,True,1,17,traffic-light-mouselab,15,376261,5,0,6,17,2,9,30
traffic-light-mouselab,False,3,1,"[10, 11, 12, 13, 14]","[[5, 3, 7, 4, 6], [5, 0, 3, 4, 5], [4, 3, 7, 2, 4]]","[[3, 3, 3, 3, 3], [3, 3, 3, 3, 3], [0, 0, 0, 0, 0]]","[13, 1, 16]",16,18,12,3,0.029,0.027333333333333334,0.0016666666666666668,"[10, 11, 12, 13, 14]",5,5,3,12921,5,88,83,none,False,2,16,traffic-light-mouselab,16,392886,2,0,5,16,5,9,30
traffic-light-mouselab,False,3,1,"[5, 5, 5, 8, 8, 8, 7, 7, 7]","[[4, 2, 5, 6, 6], [2, 5, 3, 6, 6], [5, 2, 6, 4, 5]]","[[3, 3, 3, 3, 3], [0, 3, 0, 0, 3], [3, 3, 3, 3, 3]]","[7, 14, 9]",9,8,13,4,0.057,0.054,0.003,"[5, 8, 7]",3,5,3,8147,9,171,162,none,True,2,9,traffic-light-mouselab,17,405309,5,0,0,9,0,9,30
traffic-light-mouselab,False,3,1,"[5, 9, 8, 6]","[[5, 6, 3, 6, 4], [5, 6, 4, 3, 8], [8, 2, 7, 4, 3]]","[[3, 3, 3, 3, 3], [0, 0, 1, 0, 0], [3, 3, 3, 3, 3]]","[10, 8, 12]",8,4,14,2,0.049,0.04766666666666667,0.0013333333333333333,"[5, 9, 8, 6]",4,5,3,11706,4,146,142,none,False,1,8,traffic-light-mouselab,18,419625,4,0,4,8,4,9,30
traffic-light-mouselab,False,3,1,"[0, 3, 4, 2]","[[6, 4, 3, 3, 4], [5, 5, 7, 4, 4], [4, 7, 5, 5, 7]]","[[0, 1, 0, 0, 0], [3, 3, 3, 3, 3], [3, 3, 3, 3, 3]]","[18, 10, 2]",18,16,15,1,0.045,0.043666666666666666,0.0013333333333333333,"[0, 3, 4, 2]",4,5,3,7226,4,136,132,none,False,0,18,traffic-light-mouselab,19,434490,4,0,4,18,4,9,30
traffic-light-mouselab,False,3,1,"[11, 11, 11, 3, 3, 3, 0, 0, 0, 14, 14, 14]","[[5, 2, 5, 7, 3], [7, 3, 3, 8, 2], [7, 7, 2, 6, 9]]","[[0, 3, 3, 0, 3], [3, 3, 3, 3, 3], [3, 0, 3, 3, 0]]","[15, 2, 13]",13,16,16,2,0.036,0.032,0.004,"[11, 3, 0, 14]",4,5,3,14640,12,107,95,none,True,2,13,traffic-light-mouselab,20,563914,2,0,6,13,2,9,30
traffic-light-mouselab,False,3,1,"[0, 0, 0, 3, 3, 3, 12]","[[3, 6, 4, 4, 3], [5, 7, 7, 5, 4], [7, 4, 8, 2, 4]]","[[0, 3, 3, 0, 3], [3, 3, 3, 3, 3], [1, 1, 0, 1, 1]]","[14, 10, 6]",6,8,17,2,0.058,0.05566666666666667,0.0023333333333333335,"[0, 3, 12]",3,5,3,10559,7,174,167,none,False,2,6,traffic-light-mouselab,21,577119,8,1,1,6,1,9,30
traffic-light-mouselab,False,3,1,"[10, 11, 12, 13, 14]","[[7, 4, 8, 2, 7], [6, 3, 5, 1, 4], [4, 4, 7, 7, 7]]","[[3, 3, 3, 3, 3], [3, 3, 3, 3, 3], [0, 0, 0, 0, 0]]","[3, 1, 26]",26,32,18,3,0.063,0.06133333333333334,0.0016666666666666668,"[10, 11, 12, 13, 14]",5,5,3,7456,5,189,184,none,False,2,26,traffic-light-mouselab,22,586812,7,1,5,26,5,9,30
traffic-light-mouselab,False,3,1,"[6, 6, 6, 8, 8, 8, 5, 5, 5, 9, 9, 9]","[[4, 5, 4, 8, 5], [4, 6, 4, 6, 4], [3, 4, 5, 3, 6]]","[[3, 3, 3, 3, 3], [0, 0, 3, 0, 0], [3, 3, 3, 3, 3]]","[2, 27, 1]",27,34,19,3,0.06,0.055999999999999994,0.004,"[6, 8, 5, 9]",4,5,3,12465,12,181,169,none,True,1,27,traffic-light-mouselab,23,600881,6,1,12,27,4,9,30
traffic-light-mouselab,False,3,1,"[5, 6, 7, 8, 9]","[[5, 0, 4, 7, 3], [6, 8, 6, 2, 1], [3, 5, 6, 3, 3]]","[[3, 3, 3, 3, 3], [0, 0, 0, 0, 0], [3, 3, 3, 3, 3]]","[5, 20, 5]",20,20,20,1,0.062,0.060333333333333336,0.0016666666666666668,"[5, 6, 7, 8, 9]",5,5,3,5676,5,185,180,none,False,1,20,traffic-light-mouselab,24,609476,8,1,5,20,5,9,30
traffic-light-mouselab,False,3,1,"[1, 1, 1, 4, 4, 4, 3, 3, 3]","[[4, 5, 4, 3, 3], [7, 5, 9, 6, 6], [5, 3, 4, 6, 6]]","[[3, 0, 3, 0, 0], [1, 1, 1, 1, 1], [3, 3, 3, 3, 3]]","[24, 4, 2]",4,28,21,1,0.049,0.046,0.003,"[1, 4, 3]",3,5,3,8142,9,146,137,none,False,1,4,traffic-light-mouselab,25,619332,5,0,0,4,0,9,30
traffic-light-mouselab,False,3,1,"[1, 1, 1, 3, 3, 3]","[[8, 6, 4, 2, 2], [9, 8, 5, 5, 6], [9, 3, 5, 4, 8]]","[[3, 0, 3, 0, 3], [3, 3, 3, 3, 3], [3, 3, 3, 3, 3]]","[23, 6, 1]",23,26,22,1,0.063,0.061,0.002,"[1, 3]",2,5,3,7642,6,189,183,none,True,0,23,traffic-light-mouselab,26,629145,6,0,6,23,2,9,30
traffic-light-mouselab,False,3,1,"[14, 12, 10]","[[4, 5, 3, 6, 4], [5, 6, 2, 7, 4], [5, 7, 7, 6, 5]]","[[3, 3, 3, 3, 3], [3, 3, 3, 3, 3], [0, 1, 0, 1, 0]]","[1, 1, 28]",28,36,23,2,0.067,0.066,0.001,"[14, 12, 10]",3,5,3,5964,3,201,198,none,False,2,28,traffic-light-mouselab,27,638294,7,1,3,28,3,9,30
traffic-light-mouselab,False,3,1,"[12, 10, 14, 13, 11]","[[6, 8, 6, 7, 8], [4, 3, 5, 2, 4], [6, 3, 4, 5, 6]]","[[3, 3, 3, 3, 3], [3, 3, 3, 3, 3], [0, 0, 0, 0, 0]]","[10, 6, 14]",14,8,24,0,0.056,0.05433333333333334,0.0016666666666666668,"[12, 10, 14, 13, 11]",5,5,3,7203,5,168,163,none,False,2,14,traffic-light-mouselab,28,647309,6,1,5,14,5,9,30
traffic-light-mouselab,False,3,1,"[2, 2, 2]","[[5, 7, 6, 5, 7], [2, 5, 5, 5, 8], [4, 6, 5, 4, 3]]","[[3, 3, 0, 3, 3], [3, 3, 3, 3, 3], [3, 3, 3, 3, 3]]","[18, 7, 5]",7,16,25,2,0.056,0.055,0.001,[2],1,5,3,7937,3,168,165,none,True,1,7,traffic-light-mouselab,29,656884,5,0,0,7,0,9,30
traffic-light-mouselab,False,3,1,"[10, 10, 10]","[[6, 6, 5, 6, 7], [7, 7, 5, 5, 6], [7, 2, 4, 6, 4]]","[[3, 3, 3, 3, 3], [3, 3, 3, 3, 3], [0, 3, 3, 3, 3]]","[5, 9, 16]",5,12,26,0,0.068,0.067,0.001,[10],1,5,3,5994,3,205,202,none,True,0,5,traffic-light-mouselab,30,665329,6,0,0,5,0,9,30
traffic-light-mouselab,False,3,1,"[8, 8, 8, 6, 6, 6]","[[3, 5, 4, 4, 6], [5, 6, 3, 3, 8], [5, 4, 5, 1, 3]]","[[3, 3, 3, 3, 3], [3, 0, 3, 0, 3], [3, 3, 3, 3, 3]]","[4, 25, 1]",25,30,27,1,0.058,0.056,0.002,"[8, 6]",2,5,3,5960,6,174,168,none,True,1,25,traffic-light-mouselab,31,672778,6,0,6,25,2,9,30
traffic-light-mouselab,False,3,1,"[14, 11]","[[5, 7, 5, 5, 6], [4, 4, 0, 3, 4], [5, 4, 7, 7, 6]]","[[3, 3, 3, 3, 3], [3, 3, 3, 3, 3], [1, 0, 1, 1, 0]]","[12, 6, 12]",12,8,28,4,0.056,0.05533333333333333,0.0006666666666666666,"[14, 11]",2,5,3,5313,2,168,166,none,False,2,12,traffic-light-mouselab,32,679848,6,0,2,12,2,9,30
traffic-light-mouselab,False,3,1,"[11, 10, 13, 12]","[[4, 10, 6, 7, 5], [4, 8, 7, 3, 5], [4, 3, 7, 4, 4]]","[[3, 3, 3, 3, 3], [3, 3, 3, 3, 3], [0, 0, 0, 0, 1]]","[5, 3, 22]",22,24,29,2,0.068,0.06666666666666667,0.0013333333333333333,"[11, 10, 13, 12]",4,5,3,6993,4,205,201,none,False,2,22,traffic-light-mouselab,33,688985,7,1,4,22,4,9,30
traffic-light-mouselab,False,3,1,"[3, 1, 0]","[[6, 5, 9, 3, 7], [10, 2, 4, 6, 7], [4, 3, 2, 9, 5]]","[[0, 0, 1, 0, 1], [3, 3, 3, 3, 3], [3, 3, 3, 3, 3]]","[24, 2, 4]",24,28,30,0,0.06,0.059,0.001,"[3, 1, 0]",3,5,3,5588,3,180,177,none,False,0,24,traffic-light-mouselab,34,696325,6,0,3,24,3,9,30
traffic-light-mouselab,True,3,1,[],"[[6, 5, 6, 9, 6], [8, 6, 3, 3, 4], [5, 5, 7, 7, 7]]","[[3, 3, 3, 3, 3], [3, 3, 3, 3, 3], [3, 3, 3, 3, 3]]","[3, 22, 5]",22,24,1,1,0.057,0.057,0.0,[],0,5,3,12303,0,172,172,none,True,1,22,traffic-light-mouselab,4,362708,6,0,0,22,0,10,30
traffic-light-mouselab,True,3,1,"[10, 11, 12, 13, 14]","[[5, 4, 7, 4, 3], [7, 6, 3, 6, 5], [5, 5, 6, 3, 5]]","[[3, 3, 3, 3, 3], [3, 3, 3, 3, 3], [0, 0, 0, 0, 0]]","[4, 6, 20]",20,20,2,2,0.055,0.05333333333333334,0.0016666666666666668,"[10, 11, 12, 13, 14]",5,5,3,25910,5,166,161,none,False,2,20,traffic-light-mouselab,5,405089,6,1,5,20,5,10,30
traffic-light-mouselab,False,3,1,[],"[[5, 4, 6, 3, 3], [6, 3, 3, 3, 3], [6, 4, 3, 7, 8]]","[[3, 3, 3, 3, 3], [3, 3, 3, 3, 3], [3, 3, 3, 3, 3]]","[23, 4, 3]",23,26,3,4,0.035,0.035,0.0,[],0,5,3,9173,0,105,105,none,True,0,23,traffic-light-mouselab,7,432342,3,0,0,23,0,10,30
traffic-light-mouselab,False,3,1,"[10, 11, 13, 14, 11, 12]","[[4, 9, 3, 3, 7], [4, 6, 6, 5, 6], [3, 4, 8, 3, 5]]","[[3, 3, 3, 3, 3], [3, 3, 3, 3, 3], [0, 0, 0, 0, 0]]","[3, 5, 22]",22,24,4,2,0.072,0.07033333333333333,0.0016666666666666668,"[10, 11, 13, 14, 12]",5,5,3,11037,5,215,210,none,False,2,22,traffic-light-mouselab,8,449456,8,1,6,22,5,10,30
traffic-light-mouselab,False,3,1,[],"[[5, 2, 6, 5, 8], [6, 2, 4, 2, 6], [5, 5, 4, 5, 4]]","[[1, 1, 1, 1, 1], [3, 3, 3, 3, 3], [3, 3, 3, 3, 3]]","[2, 12, 16]",2,16,5,2,0.041,0.041,0.0,[],0,5,3,20891,0,124,124,none,False,0,2,traffic-light-mouselab,9,473302,6,0,0,2,0,10,30
traffic-light-mouselab,False,3,1,"[0, 1, 2, 3, 4]","[[5, 4, 5, 4, 4], [9, 2, 6, 6, 5], [4, 0, 2, 6, 3]]","[[0, 0, 0, 0, 0], [3, 3, 3, 3, 3], [3, 3, 3, 3, 3]]","[18, 10, 2]",18,16,6,0,0.063,0.06133333333333334,0.0016666666666666668,"[0, 1, 2, 3, 4]",5,5,3,8970,5,188,183,none,False,0,18,traffic-light-mouselab,10,484421,5,1,5,18,5,10,30
traffic-light-mouselab,False,3,1,"[5, 5, 5, 7, 7, 7, 9, 9, 9]","[[6, 3, 7, 6, 6], [4, 2, 6, 3, 4], [5, 6, 1, 7, 3]]","[[3, 3, 3, 3, 3], [0, 3, 0, 3, 0], [3, 3, 3, 3, 3]]","[1, 19, 10]",19,18,7,2,0.044,0.040999999999999995,0.003,"[5, 7, 9]",3,5,3,24205,9,131,122,none,True,1,19,traffic-light-mouselab,11,510754,6,1,9,19,3,10,30
traffic-light-mouselab,False,3,1,[],"[[2, 3, 3, 9, 5], [4, 1, 2, 1, 3], [8, 6, 4, 5, 3]]","[[3, 3, 3, 3, 3], [1, 1, 1, 1, 1], [3, 3, 3, 3, 3]]","[1, 8, 21]",8,22,8,1,0.046,0.046,0.0,[],0,5,3,4796,0,137,137,none,False,1,8,traffic-light-mouselab,12,517803,1,0,0,8,0,10,30
traffic-light-mouselab,False,3,1,"[0, 0, 0, 1, 1, 1, 2, 2, 2, 3, 3, 3, 4, 4, 4]","[[6, 5, 6, 5, 6], [5, 2, 6, 4, 5], [4, 6, 3, 5, 5]]","[[0, 0, 0, 0, 0], [1, 1, 1, 1, 1], [3, 3, 3, 3, 3]]","[21, 4, 5]",4,22,9,4,0.057,0.052000000000000005,0.005,"[0, 1, 2, 3, 4]",5,5,3,10505,15,171,156,none,False,1,4,traffic-light-mouselab,13,531284,5,0,0,4,0,10,30
traffic-light-mouselab,False,3,1,[],"[[2, 4, 6, 4, 7], [2, 3, 4, 3, 5], [2, 5, 4, 5, 5]]","[[1, 1, 1, 1, 1], [3, 3, 3, 3, 3], [3, 3, 3, 3, 3]]","[10, 9, 11]",10,2,10,0,0.02,0.02,0.0,[],0,5,3,6132,0,60,60,none,False,0,10,traffic-light-mouselab,14,539499,2,0,0,10,0,10,30
traffic-light-mouselab,False,3,1,[],"[[6, 4, 5, 3, 6], [3, 7, 6, 3, 6], [6, 4, 5, 8, 4]]","[[1, 1, 1, 1, 1], [3, 3, 3, 3, 3], [3, 3, 3, 3, 3]]","[12, 1, 17]",12,18,11,3,0.058,0.058,0.0,[],0,5,3,6205,0,175,175,none,False,0,12,traffic-light-mouselab,15,548134,3,0,0,12,0,10,30
traffic-light-mouselab,False,3,1,"[5, 6, 7, 9, 8]","[[4, 9, 3, 4, 7], [6, 5, 7, 7, 7], [6, 6, 4, 6, 1]]","[[3, 3, 3, 3, 3], [0, 0, 0, 0, 0], [3, 3, 3, 3, 3]]","[1, 28, 1]",28,36,12,3,0.069,0.06733333333333334,0.0016666666666666668,"[5, 6, 7, 9, 8]",5,5,3,8700,5,206,201,none,False,1,28,traffic-light-mouselab,16,558704,7,1,5,28,5,10,30
