type,is_practice,click_values,payoff_matrix,cost_matrix,weights,weights_deviation,trial_num,selected_option,gross_earnings,net_earnings,click_cost,uncovered_values,num_values_revealed,nudge_type,num_baskets,num_features,reaction_time,points_click_cost,points_action_utility,points_metalevel_reward,problem_id,trial_type,trial_index,time_elapsed,participant_id
mouselab,True,[8],"[[4, 7, 4, 5, 7], [7, 3, 6, 7, 8], [7, 5, 6, 8, 4], [4, 7, 6, 6, 4], [3, 6, 6, 7, 5]]","[[1, 3, 3, 3, 3], [3, 1, 3, 3, 3], [1, 1, 3, 3, 3], [3, 3, 3, 3, 3], [3, 1, 1, 3, 3]]","[2, 17, 4, 3, 4]",22,1,3,0.069,0.06866666666666667,0.0003333333333333333,[],0,random,5,5,7766,1,207,206,5.854867709950254e+17,attentional-mouselab,4,132450,0
mouselab,True,[],"[[4, 6, 5, 2, 5], [6, 1, 4, 4, 7], [2, 4, 2, 3, 5], [5, 6, 6, 8, 5], [6, 4, 5, 2, 5]]","[[3, 3, 3, 1, 3], [3, 3, 3, 3, 3], [3, 3, 3, 3, 3], [3, 1, 3, 1, 1], [3, 1, 3, 3, 1]]","[1, 7, 9, 5, 8]",12,2,3,0.038,0.038,0.0,[],0,random,5,5,2702,0,113,113,7.940710075208626e+18,attentional-mouselab,5,137898,0
mouselab,False,[],"[[5, 7, 3, 6, 4], [4, 3, 3, 7, 5], [5, 8, 7, 6, 7], [9, 7, 6, 5, 6], [6, 5, 5, 10, 2]]","[[3, 3, 3, 3, 3], [3, 3, 3, 3, 3], [3, 3, 3, 3, 3], [3, 1, 3, 1, 3], [3, 1, 1, 1, 1]]","[1, 6, 9, 12, 2]",18,3,2,0.055,0.055,0.0,[],0,random,5,5,2238,0,166,166,1.34923865807577e+19,attentional-mouselab,7,143706,0
mouselab,False,[],"[[6, 6, 5, 6, 5], [1, 4, 5, 5, 6], [4, 3, 2, 6, 5], [2, 6, 7, 5, 6], [7, 5, 2, 5, 4]]","[[3, 3, 3, 1, 3], [1, 1, 3, 3, 1], [3, 3, 3, 1, 3], [1, 3, 3, 3, 3], [3, 3, 3, 3, 3]]","[7, 6, 3, 7, 7]",6,4,4,0.052,0.052,0.0,[],0,greedy,5,5,3039,0,156,156,1.6319366751650621e+19,attentional-mouselab,8,148658,0
mouselab,False,[],"[[7, 4, 7, 5, 5], [6, 8, 5, 6, 5], [9, 7, 4, 5, 6], [3, 3, 5, 7, 4], [5, 4, 4, 4, 7]]","[[1, 3, 3, 3, 3], [3, 3, 3, 3, 3], [1, 3, 3, 3, 1], [1, 3, 1, 1, 3], [3, 3, 3, 3, 3]]","[1, 2, 9, 14, 4]",22,5,2,0.046,0.046,0.0,[],0,greedy,5,5,2623,0,139,139,7.716857061610745e+18,attentional-mouselab,9,152522,0
mouselab,False,[],"[[6, 6, 4, 5, 6], [7, 4, 8, 5, 7], [5, 2, 5, 5, 7], [4, 6, 4, 4, 6], [4, 3, 6, 3, 5]]","[[3, 3, 3, 3, 1], [3, 3, 3, 3, 1], [1, 3, 3, 3, 1], [1, 3, 3, 3, 3], [3, 1, 3, 3, 3]]","[15, 1, 3, 4, 7]",20,6,0,0.052,0.052,0.0,[],0,greedy,5,5,831,0,156,156,1.741940068518977e+19,attentional-mouselab,10,154545,0
mouselab,False,[],"[[7, 5, 4, 7, 6], [3, 6, 5, 5, 5], [8, 1, 5, 5, 7], [3, 5, 2, 5, 6], [4, 6, 3, 7, 5]]","[[3, 3, 3, 3, 3], [3, 1, 3, 1, 3], [3, 3, 3, 3, 3], [3, 3, 1, 3, 1], [1, 3, 3, 3, 1]]","[9, 2, 7, 2, 10]",16,7,3,0.063,0.063,0.0,[],0,random,5,5,759,0,188,188,1.1355906450189533e+18,attentional-mouselab,11,156298,0
mouselab,False,[],"[[4, 6, 7, 7, 7], [4, 7, 7, 3, 4], [4, 7, 2, 6, 7], [9, 4, 7, 5, 3], [9, 6, 5, 5, 5]]","[[3, 1, 3, 1, 1], [1, 3, 3, 3, 3], [1, 3, 3, 3, 3], [1, 3, 3, 3, 3], [3, 3, 3, 3, 3]]","[1, 12, 5, 6, 6]",12,8,2,0.058,0.058,0.0,[],0,random,5,5,710,0,173,173,1.4122248548037802e+19,attentional-mouselab,12,158194,0
mouselab,False,[],"[[6, 6, 5, 6, 2], [7, 2, 5, 7, 5], [6, 7, 3, 5, 5], [5, 5, 2, 7, 5], [4, 7, 5, 6, 5]]","[[3, 3, 3, 3, 1], [3, 1, 1, 1, 3], [3, 3, 3, 3, 3], [3, 3, 1, 3, 1], [3, 3, 3, 3, 3]]","[2, 17, 2, 7, 2]",24,9,1,0.036,0.036,0.0,[],0,extreme,5,5,1198,0,109,109,2.7121735666158694e+18,attentional-mouselab,13,160594,0
mouselab,False,[],"[[7, 3, 5, 5, 8], [6, 1, 4, 8, 9], [2, 5, 6, 3, 6], [3, 3, 4, 6, 5], [3, 6, 7, 5, 5]]","[[3, 1, 3, 3, 3], [3, 3, 3, 3, 3], [3, 3, 1, 3, 3], [1, 1, 3, 3, 3], [1, 3, 1, 3, 3]]","[4, 3, 14, 6, 3]",16,10,4,0.063,0.063,0.0,[],0,random,5,5,1023,0,188,188,1.2343390575741921e+19,attentional-mouselab,14,164066,0
mouselab,False,[],"[[5, 7, 6, 5, 5], [5, 5, 6, 6, 6], [5, 4, 5, 4, 6], [7, 6, 2, 7, 6], [5, 9, 6, 4, 6]]","[[3, 1, 3, 3, 3], [3, 3, 3, 1, 3], [3, 1, 3, 3, 1], [3, 3, 1, 3, 3], [3, 1, 3, 3, 3]]","[1, 3, 9, 14, 3]",22,11,4,0.06,0.06,0.0,[],0,extreme,5,5,966,0,179,179,6.538258526578511e+18,attentional-mouselab,15,166162,0
mouselab,False,[],"[[6, 2, 4, 2, 4], [6, 7, 7, 6, 6], [5, 4, 7, 6, 5], [4, 2, 6, 5, 5], [6, 3, 5, 5, 6]]","[[3, 3, 3, 3, 1], [3, 3, 1, 3, 3], [3, 3, 1, 3, 3], [1, 1, 1, 3, 3], [3, 3, 3, 3, 3]]","[1, 7, 3, 14, 5]",18,12,3,0.052,0.052,0.0,[],0,greedy,5,5,1102,0,157,157,6.795761916595838e+18,attentional-mouselab,16,168434,0
mouselab,False,[],"[[3, 5, 3, 3, 3], [5, 5, 5, 8, 3], [6, 3, 7, 6, 4], [3, 6, 5, 4, 5], [6, 6, 5, 3, 0]]","[[1, 3, 3, 3, 3], [3, 3, 3, 1, 3], [3, 3, 1, 3, 3], [1, 3, 3, 3, 3], [3, 1, 3, 1, 3]]","[11, 2, 11, 5, 1]",20,13,1,0.045,0.045,0.0,[],0,greedy,5,5,590,0,134,134,1.1981394669422471e+19,attentional-mouselab,17,170033,0
mouselab,False,[],"[[8, 4, 3, 5, 3], [5, 9, 9, 5, 6], [0, 3, 4, 7, 6], [6, 5, 4, 5, 4], [3, 4, 6, 3, 5]]","[[1, 3, 3, 3, 3], [3, 1, 1, 3, 3], [1, 1, 3, 3, 3], [3, 3, 3, 3, 3], [3, 1, 3, 3, 3]]","[16, 4, 3, 6, 1]",20,14,2,0.042,0.042,0.0,[],0,extreme,5,5,966,0,126,126,1.1122310176929325e+19,attentional-mouselab,18,172434,0
mouselab,False,[],"[[4, 7, 3, 3, 5], [7, 5, 6, 5, 6], [5, 5, 8, 3, 3], [5, 4, 4, 4, 8], [5, 6, 5, 4, 4]]","[[3, 1, 3, 3, 3], [3, 3, 3, 3, 3], [3, 3, 1, 3, 3], [3, 1, 1, 3, 3], [1, 3, 3, 3, 1]]","[4, 2, 19, 4, 1]",26,15,3,0.033,0.033,0.0,[],0,random,5,5,1006,0,99,99,1.6794635101459069e+19,attentional-mouselab,19,174921,0
mouselab,False,[],"[[5, 7, 3, 6, 6], [6, 7, 8, 5, 7], [6, 5, 6, 4, 9], [5, 5, 4, 4, 6], [4, 4, 2, 5, 7]]","[[3, 3, 3, 1, 3], [1, 3, 3, 3, 3], [3, 1, 3, 1, 3], [3, 3, 1, 3, 3], [3, 3, 3, 3, 1]]","[1, 3, 2, 10, 14]",24,16,0,0.047,0.047,0.0,[],0,random,5,5,871,0,141,141,6.254821992393915e+18,attentional-mouselab,20,177233,0
mouselab,False,[],"[[7, 2, 4, 4, 4], [6, 5, 8, 5, 5], [6, 6, 3, 5, 3], [7, 4, 1, 3, 6], [7, 5, 6, 6, 3]]","[[1, 3, 3, 3, 3], [3, 1, 3, 3, 1], [3, 3, 3, 3, 3], [1, 3, 3, 1, 3], [1, 3, 3, 3, 3]]","[10, 8, 2, 8, 2]",16,17,2,0.043,0.043,0.0,[],0,random,5,5,1006,0,130,130,6.744968927774665e+18,attentional-mouselab,21,179234,0
mouselab,False,[],"[[5, 4, 3, 6, 4], [6, 8, 3, 7, 7], [5, 6, 6, 6, 6], [3, 3, 8, 6, 3], [6, 8, 7, 6, 4]]","[[1, 3, 3, 3, 3], [3, 1, 3, 3, 3], [3, 3, 3, 3, 1], [3, 3, 1, 1, 3], [3, 1, 3, 3, 3]]","[1, 3, 13, 1, 12]",26,18,1,0.068,0.068,0.0,[],0,extreme,5,5,974,0,205,205,1.094256072206062e+19,attentional-mouselab,22,181530,0
mouselab,False,[],"[[5, 3, 6, 5, 6], [9, 3, 6, 3, 7], [5, 4, 5, 5, 3], [3, 6, 7, 6, 3], [6, 5, 4, 6, 6]]","[[3, 3, 3, 3, 3], [1, 3, 1, 3, 3], [3, 3, 3, 1, 1], [3, 1, 3, 3, 1], [3, 3, 3, 3, 3]]","[1, 6, 9, 6, 8]",10,19,4,0.047,0.047,0.0,[],0,extreme,5,5,783,0,141,141,1.0152153179664687e+19,attentional-mouselab,23,183418,0
mouselab,False,[],"[[3, 7, 7, 5, 4], [3, 3, 5, 3, 4], [6, 5, 7, 5, 5], [4, 4, 4, 6, 2], [5, 4, 6, 5, 5]]","[[3, 3, 1, 3, 3], [3, 1, 3, 1, 3], [3, 3, 1, 3, 3], [3, 3, 3, 3, 3], [3, 3, 1, 1, 3]]","[13, 7, 4, 4, 2]",16,20,3,0.047,0.047,0.0,[],0,greedy,5,5,757,0,140,140,9.242031296026763e+18,attentional-mouselab,24,185227,0
mouselab,False,[],"[[4, 4, 6, 4, 4], [3, 4, 6, 8, 7], [6, 3, 4, 4, 7], [7, 6, 7, 4, 5], [8, 6, 5, 5, 5]]","[[3, 3, 3, 3, 3], [3, 1, 3, 3, 1], [3, 1, 3, 3, 3], [3, 3, 1, 3, 3], [1, 1, 3, 3, 3]]","[7, 4, 9, 8, 2]",12,21,0,0.055,0.055,0.0,[],0,greedy,5,5,813,0,166,166,8.990598246620205e+18,attentional-mouselab,25,187018,0
mouselab,False,[],"[[4, 3, 3, 3, 3], [5, 6, 7, 7, 6], [5, 5, 7, 2, 3], [6, 6, 5, 7, 3], [8, 4, 5, 6, 6]]","[[3, 3, 3, 1, 3], [1, 3, 1, 3, 3], [3, 3, 1, 3, 3], [3, 1, 3, 3, 3], [1, 3, 3, 3, 3]]","[7, 2, 10, 5, 6]",10,22,3,0.042,0.042,0.0,[],0,greedy,5,5,1054,0,126,126,7.296166216827162e+18,attentional-mouselab,26,189210,0
mouselab,False,[],"[[5, 5, 6, 4, 3], [5, 7, 7, 5, 8], [5, 5, 4, 7, 7], [7, 3, 5, 6, 6], [6, 4, 5, 8, 4]]","[[3, 3, 3, 3, 3], [1, 3, 3, 3, 1], [3, 3, 3, 1, 3], [3, 3, 3, 1, 3], [3, 3, 3, 1, 1]]","[1, 7, 6, 12, 4]",14,23,2,0.053,0.053,0.0,[],0,greedy,5,5,830,0,159,159,4.5405123279136835e+18,attentional-mouselab,27,191138,0
mouselab,False,[],"[[7, 4, 2, 4, 3], [3, 4, 4, 6, 6], [5, 5, 3, 6, 3], [3, 5, 6, 3, 7], [3, 6, 3, 2, 5]]","[[1, 3, 1, 3, 3], [3, 3, 3, 3, 3], [3, 3, 3, 3, 1], [1, 1, 3, 3, 3], [3, 3, 3, 1, 3]]","[11, 4, 7, 5, 3]",12,24,1,0.046,0.046,0.0,[],0,extreme,5,5,670,0,138,138,1.4098686109202744e+18,attentional-mouselab,28,192858,0
mouselab,False,[],"[[4, 4, 5, 4, 8], [4, 4, 8, 4, 6], [3, 4, 5, 5, 3], [6, 3, 8, 3, 5], [6, 8, 10, 5, 5]]","[[3, 3, 3, 1, 3], [3, 3, 3, 3, 3], [3, 3, 3, 3, 3], [3, 3, 1, 1, 3], [3, 1, 1, 1, 3]]","[3, 20, 3, 1, 3]",28,25,0,0.042,0.042,0.0,[],0,extreme,5,5,686,0,125,125,1.4854474324414962e+19,attentional-mouselab,29,194554,0
mouselab,False,[],"[[5, 4, 6, 3, 8], [5, 6, 3, 7, 6], [4, 4, 8, 4, 3], [7, 7, 5, 6, 5], [5, 3, 5, 4, 6]]","[[3, 1, 3, 3, 1], [3, 3, 3, 1, 3], [3, 3, 1, 3, 3], [3, 1, 3, 3, 3], [3, 1, 3, 3, 3]]","[8, 8, 4, 9, 1]",14,26,4,0.058,0.058,0.0,[],0,extreme,5,5,1214,0,175,175,1.1357966517986629e+18,attentional-mouselab,30,197025,0
mouselab,False,[],"[[8, 5, 8, 4, 4], [4, 6, 4, 6, 4], [5, 1, 6, 4, 7], [5, 5, 4, 7, 6], [6, 1, 4, 0, 5]]","[[3, 3, 1, 3, 3], [3, 1, 3, 3, 3], [3, 1, 3, 3, 3], [3, 3, 3, 1, 3], [3, 1, 3, 1, 3]]","[3, 4, 5, 17, 1]",22,27,1,0.043,0.043,0.0,[],0,extreme,5,5,695,0,130,130,1.1366324717609744e+19,attentional-mouselab,31,198914,0
mouselab,False,[],"[[2, 5, 8, 4, 6], [5, 3, 4, 8, 3], [4, 6, 4, 1, 3], [3, 6, 8, 6, 6], [3, 5, 7, 4, 5]]","[[1, 3, 3, 3, 3], [3, 3, 3, 1, 3], [3, 1, 3, 1, 3], [3, 3, 3, 3, 3], [3, 1, 1, 3, 3]]","[1, 14, 4, 9, 2]",22,28,3,0.061,0.061,0.0,[],0,extreme,5,5,3166,0,182,182,6.685893525115922e+18,attentional-mouselab,32,203065,0
mouselab,False,[],"[[5, 8, 6, 5, 3], [7, 6, 4, 5, 7], [4, 4, 5, 5, 10], [6, 4, 4, 6, 6], [4, 7, 4, 6, 6]]","[[3, 1, 3, 1, 3], [3, 3, 3, 3, 1], [3, 3, 3, 3, 1], [3, 3, 3, 3, 1], [3, 3, 3, 3, 1]]","[9, 1, 12, 3, 5]",18,29,2,0.05,0.05,0.0,[],0,greedy,5,5,638,0,150,150,1.8183561035981025e+19,attentional-mouselab,33,204633,0
mouselab,False,[],"[[7, 4, 4, 6, 4], [7, 5, 7, 9, 7], [2, 3, 4, 6, 6], [2, 5, 6, 4, 5], [5, 5, 5, 6, 3]]","[[3, 1, 3, 1, 3], [3, 1, 1, 3, 1], [1, 3, 3, 3, 3], [3, 3, 3, 3, 3], [3, 3, 3, 3, 3]]","[6, 6, 15, 2, 1]",18,30,0,0.041,0.041,0.0,[],0,random,5,5,1247,0,123,123,1.8721156915346033e+18,attentional-mouselab,34,207025,0
mouselab,False,[],"[[6, 6, 3, 3, 7], [4, 5, 2, 7, 5], [5, 5, 3, 4, 4], [10, 3, 8, 5, 2], [5, 5, 5, 5, 3]]","[[3, 3, 3, 3, 1], [3, 3, 3, 3, 1], [1, 3, 3, 1, 1], [1, 3, 3, 3, 3], [3, 3, 3, 3, 3]]","[5, 4, 5, 10, 6]",8,31,1,0.045,0.045,0.0,[],0,random,5,5,743,0,135,135,1.5403637418035714e+19,attentional-mouselab,35,208945,0
mouselab,False,[],"[[5, 3, 7, 6, 4], [6, 3, 7, 5, 5], [6, 4, 6, 6, 4], [4, 5, 4, 6, 3], [7, 3, 8, 5, 4]]","[[1, 3, 1, 1, 3], [3, 1, 3, 3, 3], [3, 1, 3, 3, 3], [3, 3, 3, 3, 3], [3, 1, 3, 3, 3]]","[1, 1, 14, 6, 8]",20,32,4,0.038,0.038,0.0,[],0,random,5,5,806,0,115,115,3.107623256668416e+18,attentional-mouselab,36,211290,0
mouselab,True,"[10, 17, 8, 1, 8, 14, 16, 10]","[[7, 5, 4, 3, 5], [5, 5, 6, 1, 5], [2, 4, 6, 5, 7], [5, 7, 1, 6, 5], [4, 5, 5, 6, 5]]","[[3, 3, 3, 3, 3], [1, 3, 3, 3, 3], [3, 3, 1, 1, 3], [3, 1, 1, 3, 1], [3, 3, 3, 3, 3]]","[2, 4, 3, 7, 14]",18,1,1,0.054,0.051333333333333335,0.0026666666666666666,"[17, 16]",2,random,5,5,22279,8,161,153,1.889358731601123e+18,attentional-mouselab,4,102528,1
mouselab,True,"[7, 10, 22, 13, 1]","[[1, 5, 5, 4, 5], [5, 4, 4, 6, 5], [6, 2, 6, 5, 7], [7, 7, 8, 6, 6], [6, 4, 7, 7, 8]]","[[3, 1, 3, 3, 3], [3, 3, 1, 3, 3], [3, 3, 3, 1, 3], [3, 3, 1, 3, 1], [3, 3, 1, 3, 3]]","[1, 8, 3, 2, 16]",24,2,2,0.061,0.059333333333333335,0.0016666666666666668,"[7, 22, 13, 1]",4,random,5,5,6524,5,183,178,2.9005083809400607e+18,attentional-mouselab,5,110566,1
mouselab,False,[],"[[7, 6, 4, 4, 1], [7, 3, 2, 8, 8], [4, 2, 1, 1, 7], [6, 8, 5, 1, 7], [5, 7, 7, 3, 3]]","[[3, 3, 3, 3, 1], [3, 3, 3, 3, 3], [3, 3, 1, 1, 3], [3, 3, 3, 1, 3], [1, 3, 3, 1, 3]]","[8, 12, 1, 3, 6]",16,3,1,0.051,0.051,0.0,[],0,extreme,5,5,895,0,152,152,8.452305014539187e+18,attentional-mouselab,7,115232,1
mouselab,False,"[7, 17, 23, 8]","[[6, 3, 7, 3, 4], [3, 2, 2, 7, 3], [6, 6, 4, 4, 5], [5, 6, 1, 4, 4], [3, 4, 1, 8, 0]]","[[3, 3, 1, 3, 3], [3, 1, 3, 3, 3], [3, 3, 3, 3, 3], [3, 3, 1, 3, 3], [3, 3, 1, 1, 1]]","[2, 4, 10, 5, 9]",14,4,3,0.055,0.05366666666666667,0.0013333333333333333,"[17, 23]",2,extreme,5,5,4090,4,166,162,9.122157235728214e+18,attentional-mouselab,8,120934,1
mouselab,False,"[2, 8, 12, 17]","[[5, 3, 8, 6, 6], [6, 4, 4, 8, 6], [8, 5, 6, 4, 3], [8, 5, 1, 6, 4], [3, 5, 5, 4, 3]]","[[3, 3, 1, 3, 3], [3, 3, 3, 1, 3], [1, 3, 3, 3, 3], [1, 3, 3, 1, 3], [3, 3, 3, 1, 3]]","[1, 16, 3, 6, 4]",20,5,2,0.039,0.03766666666666667,0.0013333333333333333,"[2, 8]",2,greedy,5,5,4333,4,116,112,5.709048317288594e+18,attentional-mouselab,9,126563,1
mouselab,False,[],"[[4, 3, 4, 6, 6], [4, 4, 2, 4, 2], [5, 3, 6, 8, 2], [6, 4, 6, 6, 6], [3, 0, 6, 4, 5]]","[[3, 3, 1, 1, 3], [3, 3, 3, 3, 1], [1, 3, 3, 1, 3], [3, 3, 3, 1, 3], [3, 3, 3, 3, 3]]","[5, 3, 14, 5, 3]",16,6,4,0.036,0.036,0.0,[],0,greedy,5,5,880,0,109,109,1.2418900116086002e+19,attentional-mouselab,10,128552,1
mouselab,False,"[23, 18, 13, 8, 3]","[[7, 2, 5, 6, 1], [5, 5, 8, 7, 3], [6, 6, 4, 5, 7], [3, 6, 3, 5, 3], [4, 5, 10, 7, 4]]","[[3, 3, 3, 3, 3], [1, 1, 3, 1, 3], [3, 3, 3, 3, 3], [1, 3, 3, 3, 1], [3, 3, 1, 3, 3]]","[7, 5, 8, 7, 3]",8,7,3,0.058,0.05633333333333334,0.0016666666666666668,[8],1,random,5,5,3897,5,173,168,1.4907461469138782e+19,attentional-mouselab,11,134602,1
mouselab,False,[],"[[2, 6, 5, 4, 6], [5, 6, 5, 5, 7], [3, 7, 5, 5, 3], [6, 5, 10, 7, 2], [4, 7, 4, 9, 6]]","[[1, 3, 3, 3, 3], [3, 3, 3, 3, 3], [3, 3, 3, 3, 3], [3, 1, 1, 1, 3], [3, 3, 3, 1, 1]]","[9, 5, 9, 2, 5]",12,8,2,0.052,0.052,0.0,[],0,extreme,5,5,1737,0,155,155,7.26467300155742e+17,attentional-mouselab,12,137351,1
mouselab,False,[],"[[4, 5, 5, 3, 5], [4, 0, 7, 8, 5], [6, 5, 4, 6, 4], [8, 5, 9, 5, 4], [4, 5, 5, 2, 6]]","[[1, 3, 3, 3, 3], [3, 3, 1, 3, 1], [3, 3, 3, 3, 3], [3, 3, 1, 3, 3], [1, 3, 3, 1, 3]]","[4, 4, 2, 6, 14]",16,9,1,0.043,0.043,0.0,[],0,greedy,5,5,776,0,130,130,7.049300693592869e+18,attentional-mouselab,13,139293,1
mouselab,False,[],"[[3, 6, 5, 5, 3], [5, 6, 4, 4, 4], [7, 6, 4, 6, 6], [8, 5, 6, 2, 6], [5, 1, 6, 7, 5]]","[[3, 3, 1, 3, 1], [3, 3, 3, 3, 3], [1, 3, 3, 3, 3], [1, 3, 3, 1, 3], [3, 1, 3, 3, 3]]","[13, 9, 2, 3, 3]",20,10,1,0.054,0.054,0.0,[],0,extreme,5,5,759,0,162,162,7.927863295918141e+18,attentional-mouselab,14,140862,1
mouselab,False,[],"[[4, 7, 5, 5, 5], [6, 4, 7, 6, 6], [0, 5, 3, 7, 7], [8, 7, 3, 6, 4], [4, 1, 4, 3, 5]]","[[3, 3, 3, 1, 3], [3, 3, 3, 3, 3], [1, 1, 3, 3, 3], [1, 3, 3, 3, 3], [3, 1, 3, 1, 3]]","[16, 5, 2, 3, 4]",20,11,1,0.056,0.056,0.0,[],0,extreme,5,5,747,0,167,167,1.7316304379102824e+19,attentional-mouselab,15,142533,1
mouselab,False,[],"[[3, 3, 5, 4, 6], [2, 6, 10, 7, 6], [6, 7, 5, 2, 6], [2, 3, 3, 7, 4], [7, 5, 6, 4, 5]]","[[3, 3, 3, 3, 3], [3, 3, 1, 3, 3], [3, 3, 3, 3, 1], [3, 3, 1, 1, 3], [1, 3, 1, 3, 3]]","[6, 9, 3, 11, 1]",16,12,1,0.044,0.044,0.0,[],0,greedy,5,5,951,0,131,131,4.988030608032185e+18,attentional-mouselab,16,144902,1
mouselab,False,[],"[[4, 3, 7, 5, 4], [6, 7, 6, 5, 7], [3, 7, 5, 7, 2], [3, 5, 5, 5, 9], [4, 5, 6, 4, 5]]","[[1, 3, 1, 1, 3], [3, 3, 1, 3, 3], [3, 1, 3, 3, 3], [1, 3, 3, 3, 3], [3, 3, 3, 3, 3]]","[2, 4, 7, 10, 7]",12,13,1,0.056,0.056,0.0,[],0,random,5,5,1018,0,168,168,8.380608825066263e+18,attentional-mouselab,17,147240,1
mouselab,False,"[15, 11, 1]","[[3, 5, 6, 5, 3], [5, 4, 6, 3, 5], [6, 6, 2, 6, 2], [6, 4, 5, 4, 4], [6, 4, 3, 6, 4]]","[[1, 3, 1, 3, 3], [3, 3, 3, 3, 3], [1, 3, 3, 3, 3], [1, 3, 1, 3, 3], [1, 3, 3, 3, 3]]","[12, 1, 3, 8, 6]",16,14,0,0.048,0.047,0.001,[15],1,greedy,5,5,3176,3,143,140,1.0884605795577115e+19,attentional-mouselab,18,151493,1
mouselab,False,"[1, 6, 11]","[[6, 7, 4, 5, 10], [4, 8, 2, 6, 6], [3, 4, 7, 4, 7], [5, 6, 4, 5, 5], [5, 1, 5, 5, 7]]","[[3, 3, 3, 3, 1], [3, 3, 3, 1, 3], [3, 1, 3, 1, 3], [3, 1, 3, 3, 3], [3, 3, 1, 3, 3]]","[6, 13, 1, 6, 4]",14,15,1,0.063,0.062,0.001,[11],1,random,5,5,2765,3,190,187,4.0204525658374374e+18,attentional-mouselab,19,155497,1
mouselab,False,"[1, 6, 11, 16, 21]","[[4, 5, 5, 5, 8], [5, 5, 4, 3, 5], [7, 4, 10, 4, 3], [4, 8, 5, 6, 0], [6, 5, 6, 5, 5]]","[[3, 3, 3, 1, 1], [3, 3, 3, 3, 3], [3, 3, 1, 3, 1], [3, 3, 3, 3, 1], [3, 3, 3, 3, 1]]","[7, 8, 2, 9, 4]",12,16,1,0.058,0.05633333333333334,0.0016666666666666668,[],0,extreme,5,5,3160,5,175,170,1.1089987029762406e+19,attentional-mouselab,20,159711,1
mouselab,False,[21],"[[4, 4, 6, 5, 6], [3, 6, 5, 3, 4], [4, 5, 6, 4, 8], [4, 7, 5, 7, 0], [2, 7, 4, 4, 2]]","[[3, 3, 3, 3, 3], [3, 3, 3, 3, 1], [3, 3, 3, 3, 3], [3, 1, 3, 1, 1], [1, 3, 3, 1, 3]]","[1, 5, 9, 3, 12]",18,17,1,0.061,0.06066666666666667,0.0003333333333333333,[],0,random,5,5,1519,1,184,183,5.348032188854634e+18,attentional-mouselab,21,162153,1
mouselab,False,[],"[[5, 7, 3, 6, 4], [4, 3, 3, 7, 5], [5, 8, 7, 6, 7], [9, 7, 6, 5, 6], [6, 5, 5, 10, 2]]","[[3, 3, 3, 3, 3], [3, 3, 3, 3, 3], [3, 3, 3, 3, 3], [3, 1, 3, 1, 3], [3, 1, 1, 1, 1]]","[5, 2, 17, 2, 4]",22,18,2,0.057,0.057,0.0,[],0,random,5,5,823,0,172,172,1.34923865807577e+19,attentional-mouselab,22,164110,1
mouselab,False,"[13, 8, 3, 5]","[[7, 7, 4, 2, 7], [9, 2, 3, 2, 5], [5, 5, 5, 4, 5], [5, 5, 6, 4, 4], [7, 6, 5, 5, 9]]","[[1, 3, 3, 3, 3], [1, 3, 3, 3, 3], [3, 3, 1, 3, 1], [3, 3, 3, 3, 3], [3, 1, 3, 3, 1]]","[3, 5, 2, 11, 9]",16,19,3,0.038,0.03666666666666667,0.0013333333333333333,[5],1,greedy,5,5,5629,4,113,109,1.7086180172175768e+19,attentional-mouselab,23,171001,1
mouselab,False,[],"[[4, 5, 1, 4, 6], [4, 6, 2, 4, 5], [5, 1, 6, 10, 2], [7, 2, 4, 5, 4], [3, 4, 4, 6, 4]]","[[3, 3, 1, 1, 3], [3, 3, 3, 3, 3], [3, 1, 3, 1, 3], [3, 3, 3, 3, 3], [1, 3, 1, 3, 3]]","[4, 9, 8, 7, 2]",12,20,1,0.035,0.035,0.0,[],0,extreme,5,5,791,0,104,104,8.158765956003463e+18,attentional-mouselab,24,172635,1
mouselab,False,[],"[[2, 7, 4, 4, 6], [7, 5, 4, 6, 3], [4, 3, 7, 9, 7], [6, 2, 6, 6, 10], [6, 3, 5, 3, 7]]","[[3, 3, 3, 3, 3], [3, 3, 3, 3, 3], [3, 3, 1, 3, 1], [1, 3, 3, 3, 1], [3, 1, 3, 3, 1]]","[3, 13, 6, 5, 3]",14,21,1,0.041,0.041,0.0,[],0,greedy,5,5,742,0,123,123,1.412830841046253e+19,attentional-mouselab,25,174462,1
mouselab,False,[],"[[4, 4, 9, 8, 7], [5, 5, 4, 2, 3], [6, 5, 7, 5, 5], [5, 4, 5, 6, 6], [6, 6, 5, 7, 4]]","[[3, 1, 3, 3, 1], [3, 3, 3, 3, 3], [3, 3, 3, 1, 3], [3, 3, 3, 3, 1], [1, 3, 3, 3, 1]]","[1, 17, 1, 10, 1]",30,22,1,0.047,0.047,0.0,[],0,random,5,5,914,0,140,140,4.979420414473318e+18,attentional-mouselab,26,176404,1
mouselab,False,"[21, 16]","[[5, 2, 2, 9, 3], [3, 5, 4, 5, 7], [5, 4, 4, 1, 7], [3, 8, 6, 6, 7], [3, 6, 5, 2, 2]]","[[1, 1, 1, 3, 1], [3, 1, 3, 3, 3], [3, 3, 3, 3, 3], [3, 3, 3, 1, 3], [3, 3, 3, 3, 3]]","[2, 15, 2, 8, 3]",22,23,1,0.056,0.05533333333333333,0.0006666666666666666,[],0,random,5,5,2214,2,169,167,1.3926450257687615e+19,attentional-mouselab,27,179663,1
mouselab,False,[],"[[4, 6, 6, 2, 5], [9, 5, 6, 9, 5], [5, 7, 3, 6, 3], [5, 9, 6, 4, 1], [5, 5, 2, 6, 4]]","[[3, 3, 3, 3, 3], [3, 3, 3, 1, 3], [3, 3, 1, 3, 1], [3, 1, 3, 3, 1], [3, 1, 3, 3, 3]]","[1, 2, 6, 5, 16]",20,24,1,0.061,0.061,0.0,[],0,extreme,5,5,1074,0,183,183,1.5848790106198057e+19,attentional-mouselab,28,181960,1
mouselab,False,[],"[[2, 5, 3, 5, 7], [8, 5, 5, 3, 4], [8, 5, 5, 6, 6], [5, 6, 4, 4, 4], [2, 6, 5, 5, 5]]","[[3, 3, 3, 3, 3], [3, 3, 3, 3, 3], [1, 1, 3, 3, 3], [3, 1, 3, 1, 3], [1, 3, 3, 3, 1]]","[2, 3, 15, 5, 5]",18,25,1,0.053,0.053,0.0,[],0,random,5,5,863,0,160,160,1.0689844274451384e+19,attentional-mouselab,29,183820,1
mouselab,False,"[7, 12]","[[6, 5, 6, 7, 7], [2, 3, 4, 2, 4], [7, 4, 6, 9, 4], [3, 3, 3, 7, 10], [2, 5, 6, 5, 7]]","[[1, 3, 3, 3, 3], [3, 3, 3, 3, 1], [3, 3, 3, 1, 1], [3, 3, 3, 1, 3], [3, 3, 3, 1, 3]]","[1, 2, 6, 8, 13]",18,26,2,0.051,0.05033333333333333,0.0006666666666666666,[],0,random,5,5,2295,2,152,150,6.127882599979158e+18,attentional-mouselab,30,187855,1
mouselab,False,[],"[[4, 7, 1, 6, 5], [8, 4, 5, 6, 6], [7, 7, 6, 6, 6], [2, 8, 7, 4, 4], [7, 7, 7, 5, 6]]","[[3, 1, 3, 3, 3], [1, 3, 3, 3, 3], [3, 1, 3, 3, 3], [3, 1, 3, 3, 3], [3, 1, 3, 1, 3]]","[4, 19, 1, 5, 1]",26,27,1,0.053,0.053,0.0,[],0,greedy,5,5,3161,0,158,158,1.6853308082521547e+19,attentional-mouselab,31,192611,1
mouselab,False,[],"[[5, 6, 4, 4, 1], [5, 4, 6, 4, 7], [5, 4, 7, 4, 5], [5, 4, 4, 5, 4], [3, 2, 8, 4, 5]]","[[3, 3, 3, 1, 1], [3, 3, 1, 3, 3], [3, 3, 1, 3, 3], [3, 3, 3, 3, 3], [1, 3, 1, 3, 3]]","[13, 5, 3, 5, 4]",14,28,1,0.046,0.046,0.0,[],0,greedy,5,5,960,0,138,138,1.7200853607555658e+19,attentional-mouselab,32,194964,1
mouselab,False,[11],"[[6, 5, 4, 8, 4], [6, 4, 10, 5, 4], [2, 5, 6, 8, 4], [5, 6, 5, 2, 2], [4, 4, 5, 8, 4]]","[[3, 3, 3, 3, 3], [3, 1, 1, 3, 3], [3, 1, 3, 1, 3], [3, 1, 3, 3, 1], [3, 3, 3, 3, 3]]","[5, 1, 10, 9, 5]",14,29,1,0.051,0.050666666666666665,0.0003333333333333333,[11],1,extreme,5,5,2061,1,153,152,1.7242349668041128e+19,attentional-mouselab,33,199357,1
mouselab,False,[0],"[[5, 4, 5, 5, 2], [5, 2, 5, 8, 3], [2, 6, 4, 5, 6], [3, 3, 2, 4, 6], [3, 6, 5, 2, 4]]","[[1, 1, 1, 3, 1], [1, 3, 3, 3, 1], [3, 3, 3, 3, 3], [3, 3, 3, 3, 3], [3, 3, 3, 3, 3]]","[5, 6, 4, 5, 10]",8,30,0,0.036,0.035666666666666666,0.0003333333333333333,[0],1,random,5,5,3201,1,108,107,5.876454405630864e+18,attentional-mouselab,34,203633,1
mouselab,False,"[0, 1, 2]","[[3, 3, 3, 5, 5], [9, 7, 6, 5, 1], [3, 6, 7, 2, 4], [7, 3, 2, 5, 6], [6, 5, 4, 5, 5]]","[[3, 3, 1, 3, 1], [1, 3, 3, 3, 1], [1, 3, 3, 3, 3], [3, 3, 1, 3, 3], [3, 3, 3, 3, 3]]","[1, 14, 3, 7, 5]",18,31,2,0.047,0.046,0.001,[2],1,extreme,5,5,3323,3,142,139,7.630023391710269e+18,attentional-mouselab,35,208025,1
mouselab,False,[],"[[3, 4, 5, 10, 7], [6, 4, 5, 5, 4], [4, 8, 3, 5, 4], [1, 5, 5, 6, 3], [6, 4, 6, 4, 8]]","[[3, 3, 3, 1, 3], [3, 1, 3, 3, 3], [3, 3, 3, 3, 3], [1, 3, 3, 3, 3], [3, 3, 1, 1, 1]]","[1, 5, 1, 10, 13]",22,32,2,0.054,0.054,0.0,[],0,greedy,5,5,959,0,161,161,3.006792488503815e+16,attentional-mouselab,36,209949,1
mouselab,True,"[13, 14, 12]","[[4, 3, 3, 6, 6], [4, 5, 4, 5, 8], [8, 4, 6, 5, 3], [4, 2, 4, 10, 4], [3, 3, 3, 3, 2]]","[[3, 3, 3, 1, 3], [3, 3, 3, 3, 3], [3, 3, 1, 1, 1], [3, 1, 3, 3, 3], [3, 1, 3, 3, 3]]","[1, 2, 19, 2, 6]",26,1,2,0.05,0.049,0.001,"[13, 14, 12]",3,random,5,5,35913,3,151,148,3.4306655873022505e+18,attentional-mouselab,4,291491,2
mouselab,True,"[9, 8, 8, 8, 7, 7, 7, 6, 6, 6, 5, 5, 5]","[[7, 6, 3, 5, 4], [8, 5, 2, 0, 7], [6, 4, 4, 4, 8], [6, 6, 6, 4, 3], [4, 7, 6, 5, 5]]","[[1, 3, 3, 3, 3], [3, 3, 3, 3, 1], [1, 3, 1, 3, 1], [3, 3, 3, 3, 1], [3, 3, 3, 3, 3]]","[1, 18, 5, 1, 5]",24,2,0,0.069,0.06466666666666668,0.004333333333333333,"[9, 8, 7, 6, 5]",5,random,5,5,28311,13,207,194,4.1414972932485786e+18,attentional-mouselab,5,322181,2
mouselab,False,"[17, 14, 4, 13, 13, 13, 12, 12, 12, 11, 11, 11, 10, 10, 10, 3, 3, 3]","[[5, 4, 6, 2, 6], [5, 6, 4, 7, 6], [4, 6, 6, 7, 9], [5, 4, 6, 4, 4], [2, 5, 5, 4, 5]]","[[3, 3, 3, 3, 1], [1, 3, 1, 3, 1], [3, 3, 3, 3, 1], [3, 3, 1, 3, 3], [3, 3, 3, 3, 3]]","[8, 3, 9, 9, 1]",16,3,4,0.063,0.057,0.006,"[17, 14, 4, 13, 12, 11, 10, 3]",8,greedy,5,5,39196,18,188,170,1.4428083326726025e+19,attentional-mouselab,7,365361,2
mouselab,False,"[24, 24, 24, 23, 23, 23, 22, 22, 22, 21, 21, 21, 20, 20, 20]","[[1, 5, 2, 7, 8], [8, 5, 5, 8, 3], [3, 6, 2, 6, 1], [8, 4, 7, 5, 6], [3, 6, 8, 2, 5]]","[[1, 3, 1, 1, 3], [3, 3, 3, 3, 3], [3, 3, 3, 1, 1], [3, 3, 3, 3, 1], [3, 3, 3, 3, 3]]","[3, 3, 7, 1, 16]",22,4,2,0.057,0.052000000000000005,0.005,"[24, 23, 22, 21, 20]",5,extreme,5,5,13368,15,170,155,1.0532060995726828e+19,attentional-mouselab,8,385552,2
mouselab,False,"[5, 5, 5, 6, 6, 7, 7, 7, 8, 8, 8, 9, 9, 9, 16, 17, 17, 17, 18, 18, 18, 19, 19, 19, 15, 15, 15]","[[6, 7, 6, 2, 4], [4, 0, 4, 6, 6], [4, 9, 4, 5, 6], [5, 7, 6, 6, 8], [4, 6, 8, 5, 5]]","[[3, 1, 3, 3, 3], [3, 1, 3, 3, 3], [3, 3, 1, 3, 3], [3, 1, 3, 3, 3], [3, 1, 3, 1, 3]]","[2, 9, 6, 7, 6]",8,5,4,0.061,0.05233333333333333,0.008666666666666666,"[5, 6, 7, 8, 9, 16, 17, 18, 19, 15]",10,random,5,5,22419,26,184,158,6.757021909378679e+18,attentional-mouselab,9,409039,2
mouselab,False,"[4, 3, 3, 3, 2, 2, 2, 1, 1, 1, 0, 0, 0, 21, 24, 19]","[[3, 6, 4, 4, 2], [7, 3, 6, 4, 5], [4, 6, 6, 3, 5], [1, 5, 5, 5, 9], [6, 7, 6, 7, 8]]","[[3, 3, 3, 3, 1], [3, 1, 3, 3, 3], [3, 3, 3, 3, 3], [1, 3, 3, 3, 1], [3, 1, 3, 3, 1]]","[11, 6, 3, 2, 8]",14,6,1,0.056,0.050666666666666665,0.005333333333333333,"[4, 3, 2, 1, 0, 21, 24, 19]",8,extreme,5,5,23481,16,168,152,8.528965206569769e+18,attentional-mouselab,10,433850,2
mouselab,False,"[2, 3, 3, 3, 4, 4, 4, 1, 1, 1, 0, 0, 0, 22, 17, 17, 24, 24, 24, 19, 19, 19]","[[5, 6, 7, 4, 7], [5, 6, 8, 5, 7], [4, 3, 7, 3, 8], [5, 1, 9, 3, 4], [3, 3, 5, 4, 6]]","[[3, 3, 1, 3, 3], [3, 3, 1, 1, 3], [3, 3, 3, 3, 3], [3, 1, 1, 3, 3], [3, 3, 1, 3, 3]]","[10, 2, 2, 8, 8]",16,7,2,0.071,0.06399999999999999,0.007,"[2, 3, 4, 1, 0, 22, 17, 24, 19]",9,greedy,5,5,20535,21,212,191,9.455410224978106e+18,attentional-mouselab,11,455532,2
mouselab,False,"[17, 16, 16, 16, 15, 15, 15, 18, 18, 18, 19, 19, 19, 10, 11, 13, 12, 12, 12, 14, 14, 14, 2, 2, 2, 1, 1, 1, 0, 0, 0, 3, 3, 3, 4, 4, 4]","[[3, 5, 6, 8, 4], [5, 3, 5, 5, 3], [5, 3, 5, 5, 5], [6, 4, 7, 6, 6], [5, 2, 4, 4, 7]]","[[3, 3, 3, 3, 3], [3, 3, 3, 1, 3], [1, 1, 3, 1, 3], [3, 3, 1, 3, 3], [3, 3, 3, 1, 3]]","[6, 3, 8, 12, 1]",16,8,2,0.06,0.04766666666666666,0.012333333333333333,"[17, 16, 15, 18, 19, 10, 11, 13, 12, 14, 2, 1, 0, 3, 4]",15,random,5,5,36515,37,179,142,1.7211660169478201e+19,attentional-mouselab,12,493272,2
mouselab,False,"[12, 10, 10, 10, 11, 11, 11, 13, 13, 13, 14, 14, 14, 17, 16, 16, 16, 15, 15, 15]","[[5, 4, 3, 8, 6], [4, 5, 5, 8, 2], [5, 5, 7, 2, 4], [7, 5, 6, 3, 0], [1, 6, 6, 3, 6]]","[[1, 3, 3, 1, 3], [3, 3, 3, 3, 3], [3, 3, 1, 3, 3], [3, 3, 1, 3, 3], [3, 3, 1, 3, 1]]","[2, 1, 17, 8, 2]",26,9,2,0.063,0.05633333333333333,0.006666666666666667,"[12, 10, 11, 13, 14, 17, 16, 15]",8,greedy,5,5,22841,20,190,170,9.019040078202698e+18,attentional-mouselab,13,517162,2
mouselab,False,"[10, 11, 11, 11, 12, 12, 12, 13, 13, 13, 14, 14, 14, 23, 9, 8, 8, 8, 7, 7, 7, 6, 6, 6, 5, 5, 5]","[[3, 3, 4, 3, 6], [4, 5, 4, 7, 8], [8, 7, 3, 8, 5], [4, 4, 4, 4, 5], [4, 6, 6, 2, 7]]","[[3, 3, 1, 3, 3], [3, 3, 3, 3, 1], [1, 3, 3, 3, 3], [3, 3, 1, 3, 3], [3, 1, 3, 1, 3]]","[1, 10, 14, 3, 2]",24,10,3,0.067,0.058,0.009,"[10, 11, 12, 13, 14, 23, 9, 8, 7, 6, 5]",11,extreme,5,5,19701,27,201,174,2.5304682911245425e+18,attentional-mouselab,14,538059,2
mouselab,False,"[10, 10, 10, 11, 11, 11, 12, 12, 12, 13, 13, 13, 14, 14, 14, 0, 1, 1, 1, 2, 2, 2, 3, 3, 3, 4, 4, 4]","[[10, 4, 5, 5, 6], [7, 4, 6, 6, 8], [2, 5, 5, 4, 2], [3, 2, 6, 5, 4], [7, 5, 7, 3, 5]]","[[1, 3, 3, 1, 3], [3, 3, 1, 1, 1], [3, 3, 3, 3, 1], [3, 3, 3, 3, 3], [3, 3, 3, 3, 3]]","[11, 1, 12, 5, 1]",22,11,2,0.053,0.045,0.008,"[10, 11, 12, 13, 14, 0, 1, 2, 3, 4]",10,extreme,5,5,36292,24,158,134,1.7907832553859336e+19,attentional-mouselab,15,575793,2
mouselab,False,"[20, 21, 22, 22, 22, 23, 23, 23, 24, 24, 24]","[[7, 9, 1, 6, 7], [3, 6, 3, 2, 3], [6, 5, 3, 3, 3], [6, 6, 9, 8, 6], [2, 8, 8, 4, 6]]","[[3, 1, 1, 3, 3], [3, 3, 3, 3, 3], [3, 1, 3, 3, 3], [3, 3, 1, 3, 3], [1, 1, 3, 3, 3]]","[2, 3, 3, 2, 20]",28,12,2,0.066,0.06233333333333334,0.0036666666666666666,"[20, 21, 22, 23, 24]",5,extreme,5,5,20503,11,198,187,1.4230493109941033e+19,attentional-mouselab,16,597779,2
mouselab,False,"[15, 15, 15, 16, 16, 16, 17, 17, 17, 18, 18, 19, 19, 19, 12, 13, 13, 13, 14, 14, 14, 11, 11, 11, 10, 10, 10]","[[3, 4, 4, 4, 6], [7, 5, 6, 7, 4], [6, 5, 5, 4, 5], [3, 6, 5, 6, 3], [4, 4, 8, 5, 5]]","[[3, 3, 3, 3, 3], [3, 1, 3, 1, 3], [3, 3, 1, 3, 3], [3, 1, 3, 1, 3], [3, 3, 1, 3, 3]]","[6, 4, 7, 9, 4]",8,13,1,0.05,0.042,0.008,"[15, 16, 17, 18, 19, 12, 13, 14, 11, 10]",10,greedy,5,5,34239,24,149,125,1.6301810499302447e+19,attentional-mouselab,17,633253,2
mouselab,False,"[22, 21, 21, 21, 20, 20, 20, 23, 23, 23, 24, 24, 24]","[[2, 7, 2, 5, 5], [3, 4, 3, 4, 4], [6, 5, 5, 5, 6], [6, 5, 5, 6, 3], [3, 2, 6, 8, 6]]","[[3, 3, 3, 3, 3], [3, 1, 1, 3, 3], [1, 3, 3, 3, 3], [1, 3, 3, 3, 1], [3, 3, 1, 3, 3]]","[6, 4, 4, 7, 9]",8,14,3,0.06,0.05566666666666666,0.004333333333333333,"[22, 21, 20, 23, 24]",5,random,5,5,12797,13,180,167,6.068604270688155e+18,attentional-mouselab,18,647196,2
mouselab,False,"[3, 4, 2, 1, 0, 1, 2, 1, 0, 2, 0]","[[4, 6, 6, 5, 7], [6, 4, 5, 3, 4], [6, 6, 4, 4, 5], [4, 4, 6, 2, 3], [4, 5, 4, 6, 5]]","[[3, 3, 3, 1, 1], [3, 3, 1, 3, 3], [3, 1, 3, 3, 3], [3, 3, 3, 1, 1], [3, 3, 3, 3, 3]]","[10, 6, 3, 5, 6]",8,15,4,0.051,0.04733333333333333,0.0036666666666666666,"[3, 4, 1, 2, 0]",5,greedy,5,5,11847,11,154,143,1.3824861082421475e+19,attentional-mouselab,19,660246,2
mouselab,False,"[5, 5, 6, 6, 7, 7, 8, 9, 7, 6, 5]","[[5, 2, 2, 5, 5], [5, 7, 6, 8, 3], [5, 5, 6, 7, 7], [4, 5, 6, 6, 7], [7, 7, 6, 5, 5]]","[[1, 1, 1, 3, 3], [3, 3, 3, 1, 1], [3, 1, 3, 3, 3], [3, 3, 3, 3, 3], [3, 3, 3, 3, 3]]","[4, 13, 3, 6, 4]",14,16,3,0.067,0.06333333333333334,0.0036666666666666666,"[8, 9, 7, 6, 5]",5,extreme,5,5,9709,11,201,190,3.5847257766813496e+18,attentional-mouselab,20,671140,2
mouselab,False,"[5, 5, 5, 6, 6, 6, 7, 7, 7, 8, 8, 8, 9, 9, 9]","[[3, 7, 7, 5, 6], [5, 6, 7, 3, 5], [5, 3, 3, 5, 9], [3, 0, 8, 3, 7], [6, 3, 5, 9, 5]]","[[3, 3, 3, 3, 3], [3, 3, 3, 3, 3], [1, 3, 3, 3, 3], [1, 1, 3, 3, 1], [1, 1, 3, 3, 3]]","[4, 13, 3, 8, 2]",18,17,2,0.067,0.062000000000000006,0.005,"[5, 6, 7, 8, 9]",5,random,5,5,9991,15,202,187,1.449678586871509e+19,attentional-mouselab,21,682286,2
mouselab,False,"[0, 0, 0, 1, 1, 1, 2, 2, 2, 3, 3, 3, 4, 4, 4]","[[4, 2, 5, 2, 2], [4, 5, 4, 6, 3], [5, 3, 5, 2, 8], [2, 4, 4, 8, 5], [4, 5, 4, 6, 4]]","[[3, 3, 3, 3, 3], [3, 3, 3, 3, 3], [3, 3, 1, 1, 1], [3, 1, 1, 1, 3], [3, 3, 3, 3, 3]]","[13, 3, 8, 3, 3]",18,18,2,0.047,0.042,0.005,"[0, 1, 2, 3, 4]",5,extreme,5,5,9389,15,141,126,1.009951900509872e+19,attentional-mouselab,22,693936,2
mouselab,False,"[5, 5, 5, 6, 6, 6, 7, 7, 7, 8, 8, 8, 9, 9, 9]","[[5, 4, 9, 5, 2], [7, 5, 6, 5, 2], [4, 6, 8, 4, 3], [1, 8, 5, 7, 7], [6, 3, 3, 8, 10]]","[[3, 1, 1, 1, 3], [3, 3, 3, 3, 3], [3, 3, 1, 3, 3], [1, 3, 3, 3, 3], [3, 3, 3, 3, 1]]","[1, 11, 6, 6, 6]",10,19,0,0.049,0.044000000000000004,0.005,"[5, 6, 7, 8, 9]",5,extreme,5,5,8059,15,148,133,5.486133634733592e+18,attentional-mouselab,23,703044,2
mouselab,False,"[10, 10, 10, 11, 11, 11, 12, 12, 12, 13, 13, 13, 14, 14, 14]","[[6, 4, 5, 2, 9], [5, 5, 7, 4, 2], [6, 4, 5, 8, 7], [2, 7, 7, 4, 8], [4, 3, 3, 6, 6]]","[[3, 1, 3, 3, 3], [1, 3, 3, 3, 1], [3, 3, 3, 3, 3], [1, 1, 3, 3, 3], [3, 1, 3, 3, 3]]","[2, 3, 13, 3, 9]",20,20,3,0.062,0.057,0.005,"[10, 11, 12, 13, 14]",5,random,5,5,8205,15,186,171,1.8385075632496028e+19,attentional-mouselab,24,712074,2
mouselab,False,[8],"[[4, 4, 5, 7, 4], [8, 5, 6, 8, 6], [9, 2, 3, 6, 5], [6, 7, 6, 6, 5], [7, 7, 0, 2, 6]]","[[3, 3, 3, 3, 3], [3, 3, 3, 1, 3], [3, 3, 3, 3, 3], [1, 1, 3, 3, 3], [1, 3, 1, 3, 1]]","[5, 14, 1, 7, 3]",18,21,3,0.067,0.06666666666666667,0.0003333333333333333,[8],1,random,5,5,4053,1,201,200,1.3186851384954366e+19,attentional-mouselab,25,717458,2
mouselab,False,[14],"[[5, 3, 3, 2, 7], [4, 4, 6, 7, 4], [5, 8, 3, 4, 8], [3, 4, 6, 4, 5], [6, 4, 4, 1, 7]]","[[3, 3, 3, 3, 1], [1, 3, 3, 3, 3], [3, 3, 3, 3, 1], [1, 3, 3, 3, 3], [1, 3, 3, 1, 3]]","[6, 1, 10, 6, 7]",10,22,4,0.068,0.06766666666666667,0.0003333333333333333,[14],1,random,5,5,2673,1,205,204,1.3142385956071272e+19,attentional-mouselab,26,722016,2
mouselab,False,"[12, 10, 10, 10]","[[9, 7, 3, 4, 3], [3, 7, 8, 5, 4], [9, 5, 6, 5, 4], [4, 9, 4, 7, 4], [5, 3, 5, 4, 4]]","[[1, 3, 3, 3, 3], [3, 1, 3, 3, 3], [3, 3, 1, 3, 3], [3, 1, 3, 3, 1], [3, 1, 3, 3, 3]]","[2, 6, 12, 7, 3]",14,23,0,0.062,0.06066666666666667,0.0013333333333333333,"[12, 10]",2,greedy,5,5,4821,4,187,183,1.3556215619927314e+19,attentional-mouselab,27,727800,2
mouselab,False,"[16, 18]","[[8, 3, 6, 3, 7], [6, 5, 3, 4, 3], [5, 2, 5, 4, 3], [4, 6, 2, 8, 6], [5, 3, 3, 7, 4]]","[[1, 3, 3, 3, 3], [1, 3, 3, 3, 3], [3, 3, 3, 3, 3], [3, 1, 3, 1, 3], [1, 3, 3, 1, 3]]","[2, 7, 7, 8, 6]",8,24,3,0.056,0.05533333333333333,0.0006666666666666666,"[16, 18]",2,greedy,5,5,5341,2,168,166,1.1767307063994868e+19,attentional-mouselab,28,734232,2
mouselab,False,"[2, 0]","[[10, 5, 7, 6, 5], [5, 3, 8, 4, 7], [4, 6, 5, 6, 5], [6, 3, 5, 4, 5], [4, 4, 5, 7, 3]]","[[1, 3, 1, 3, 1], [3, 3, 1, 3, 3], [3, 3, 3, 3, 3], [3, 3, 1, 3, 3], [3, 3, 3, 1, 3]]","[8, 7, 9, 2, 4]",12,25,0,0.06,0.05933333333333333,0.0006666666666666666,"[2, 0]",2,greedy,5,5,7837,2,179,177,1.350595562387553e+19,attentional-mouselab,29,743440,2
mouselab,False,[9],"[[3, 3, 7, 6, 4], [7, 7, 5, 6, 7], [3, 7, 7, 8, 6], [5, 2, 5, 8, 6], [5, 3, 4, 3, 8]]","[[3, 3, 3, 1, 3], [3, 3, 3, 3, 1], [3, 3, 3, 1, 3], [3, 3, 3, 1, 3], [3, 1, 3, 3, 1]]","[6, 16, 4, 2, 2]",20,26,4,0.063,0.06266666666666666,0.0003333333333333333,[9],1,greedy,5,5,4853,1,188,187,6.555900605606826e+18,attentional-mouselab,30,749456,2
mouselab,False,"[3, 0]","[[5, 4, 2, 7, 7], [8, 4, 4, 4, 7], [6, 6, 4, 4, 5], [4, 5, 4, 6, 3], [5, 2, 5, 4, 5]]","[[1, 3, 3, 1, 3], [3, 1, 3, 3, 3], [3, 3, 3, 3, 1], [3, 3, 3, 3, 1], [3, 3, 1, 3, 3]]","[11, 2, 4, 9, 4]",16,27,3,0.057,0.05633333333333333,0.0006666666666666666,"[3, 0]",2,random,5,5,4021,2,171,169,1.8036592963659082e+18,attentional-mouselab,31,754704,2
mouselab,False,"[1, 3]","[[5, 8, 5, 0, 6], [6, 4, 5, 4, 5], [5, 7, 4, 4, 4], [2, 9, 3, 3, 5], [6, 4, 3, 5, 7]]","[[3, 1, 3, 1, 3], [3, 3, 3, 3, 1], [3, 1, 3, 3, 3], [1, 1, 3, 3, 3], [3, 3, 3, 3, 3]]","[13, 2, 5, 9, 1]",20,28,1,0.077,0.07633333333333334,0.0006666666666666666,"[1, 3]",2,extreme,5,5,2979,2,232,230,6.057832938197504e+18,attentional-mouselab,32,758599,2
mouselab,False,[16],"[[6, 3, 5, 8, 6], [3, 8, 6, 7, 1], [7, 4, 4, 3, 7], [5, 8, 7, 4, 6], [4, 5, 7, 6, 3]]","[[1, 3, 3, 3, 3], [3, 3, 3, 1, 1], [1, 3, 1, 3, 3], [3, 1, 3, 3, 3], [3, 3, 3, 3, 3]]","[4, 6, 2, 17, 1]",22,29,1,0.07,0.06966666666666667,0.0003333333333333333,[16],1,random,5,5,3059,1,209,208,1.26042906661724e+19,attentional-mouselab,33,762780,2
mouselab,False,"[18, 19, 19, 19, 17, 17, 17, 16, 16, 16, 15, 15, 15, 10, 12, 12, 12, 11, 13, 13, 13, 14, 14, 14]","[[4, 3, 7, 5, 4], [1, 5, 6, 8, 4], [3, 5, 4, 5, 5], [6, 5, 6, 5, 2], [3, 2, 4, 4, 5]]","[[3, 1, 3, 3, 3], [3, 1, 3, 3, 1], [1, 1, 3, 3, 3], [3, 3, 3, 1, 3], [3, 3, 3, 3, 3]]","[5, 3, 10, 11, 1]",18,30,1,0.046,0.038,0.008,"[18, 19, 17, 16, 15, 10, 12, 11, 13, 14]",10,random,5,5,25159,24,137,113,2.1932513001752532e+18,attentional-mouselab,34,788846,2
mouselab,False,[20],"[[7, 8, 7, 6, 4], [5, 2, 7, 5, 4], [5, 5, 4, 5, 5], [4, 3, 7, 7, 7], [7, 3, 6, 3, 5]]","[[3, 3, 1, 3, 3], [3, 3, 1, 3, 3], [3, 1, 3, 3, 3], [3, 3, 1, 3, 3], [1, 3, 1, 3, 3]]","[5, 4, 7, 7, 7]",6,31,0,0.056,0.05566666666666667,0.0003333333333333333,[20],1,greedy,5,5,6471,1,167,166,1.6351506420565647e+19,attentional-mouselab,35,796704,2
mouselab,False,"[8, 14, 5, 6, 5, 5, 6, 6]","[[3, 2, 4, 2, 6], [6, 7, 4, 4, 3], [3, 7, 3, 4, 2], [5, 7, 5, 5, 5], [4, 2, 6, 7, 5]]","[[1, 1, 3, 1, 3], [3, 3, 3, 1, 3], [3, 3, 3, 3, 1], [3, 3, 3, 3, 3], [1, 3, 3, 3, 3]]","[5, 9, 7, 8, 1]",12,32,1,0.06,0.05733333333333333,0.0026666666666666666,"[8, 14, 5, 6]",4,extreme,5,5,14951,8,180,172,1.2699019688080701e+19,attentional-mouselab,36,812610,2
mouselab,True,"[6, 21, 20, 5, 5, 5, 7, 7, 7, 9, 9, 9, 8, 8, 8, 23, 23, 23]","[[6, 7, 5, 4, 7], [5, 3, 5, 7, 3], [2, 6, 7, 7, 3], [7, 5, 3, 3, 6], [8, 5, 4, 1, 5]]","[[3, 1, 3, 1, 3], [3, 1, 3, 3, 3], [3, 3, 3, 3, 3], [3, 1, 3, 3, 3], [1, 1, 3, 3, 3]]","[1, 13, 2, 6, 8]",18,1,0,0.06,0.054,0.006,"[6, 21, 20, 5, 7, 9, 8, 23]",8,random,5,5,42546,18,181,163,5.790454138643734e+18,attentional-mouselab,4,85320,3
mouselab,True,"[5, 5, 16, 18, 2, 0, 0, 0, 3, 3, 3, 15, 15, 15, 8, 8, 8, 1, 1, 1]","[[7, 6, 5, 6, 7], [6, 4, 6, 4, 6], [2, 4, 4, 6, 4], [4, 5, 7, 6, 8], [4, 4, 4, 5, 6]]","[[3, 3, 1, 3, 3], [1, 3, 3, 3, 3], [3, 3, 3, 3, 3], [3, 1, 3, 1, 3], [3, 3, 3, 1, 1]]","[9, 8, 1, 8, 4]",14,2,0,0.054,0.04766666666666666,0.006333333333333333,"[5, 16, 18, 2, 0, 3, 15, 8, 1]",9,random,5,5,29687,19,161,142,1.7304064741728717e+19,attentional-mouselab,5,123030,3
mouselab,False,"[18, 13, 11, 21]","[[9, 1, 3, 6, 1], [7, 5, 0, 6, 3], [6, 5, 4, 6, 5], [7, 7, 3, 6, 5], [4, 7, 5, 3, 3]]","[[3, 3, 3, 3, 3], [1, 3, 3, 3, 1], [3, 1, 3, 1, 3], [3, 3, 3, 1, 3], [3, 1, 3, 3, 3]]","[2, 2, 6, 14, 6]",16,3,3,0.054,0.05266666666666667,0.0013333333333333333,"[18, 13, 11, 21]",4,random,5,5,12305,4,162,158,1.259245988559396e+19,attentional-mouselab,7,141499,3
mouselab,False,"[15, 10, 10, 10, 11, 11, 11, 12, 12, 12, 13, 13, 13, 14, 14, 14]","[[4, 4, 4, 5, 5], [9, 5, 8, 6, 3], [5, 6, 3, 5, 5], [4, 3, 2, 4, 4], [4, 5, 8, 5, 4]]","[[3, 3, 1, 1, 1], [3, 3, 3, 3, 3], [3, 3, 3, 3, 3], [1, 3, 3, 3, 3], [3, 1, 3, 3, 1]]","[4, 4, 14, 6, 2]",16,4,1,0.049,0.043666666666666666,0.005333333333333333,"[15, 10, 11, 12, 13, 14]",6,random,5,5,15693,16,148,132,5.2173428594752e+18,attentional-mouselab,8,160577,3
mouselab,False,"[21, 9, 14]","[[2, 5, 3, 5, 5], [2, 2, 5, 6, 8], [3, 5, 5, 7, 7], [5, 6, 2, 4, 3], [4, 5, 4, 4, 7]]","[[3, 3, 1, 3, 3], [3, 3, 3, 3, 1], [3, 3, 3, 3, 1], [3, 3, 3, 3, 1], [3, 1, 3, 1, 3]]","[3, 8, 8, 3, 8]",12,5,4,0.067,0.066,0.001,"[21, 9, 14]",3,random,5,5,8078,3,200,197,9.876276916018237e+18,attentional-mouselab,9,171061,3
mouselab,False,[22],"[[5, 3, 5, 5, 8], [8, 5, 3, 7, 8], [6, 2, 7, 7, 4], [1, 5, 5, 8, 5], [4, 4, 9, 4, 6]]","[[3, 3, 3, 3, 3], [1, 3, 3, 3, 1], [3, 3, 3, 1, 3], [3, 3, 3, 1, 1], [3, 3, 1, 3, 3]]","[2, 2, 7, 2, 17]",24,6,2,0.076,0.07566666666666666,0.0003333333333333333,[22],1,greedy,5,5,4577,1,228,227,1.5206285415027952e+19,attentional-mouselab,10,178115,3
mouselab,False,"[22, 24]","[[7, 5, 4, 6, 8], [3, 5, 6, 6, 4], [6, 7, 4, 7, 4], [7, 8, 5, 7, 3], [5, 6, 7, 6, 8]]","[[3, 3, 3, 3, 1], [3, 3, 3, 3, 3], [3, 3, 3, 3, 3], [3, 1, 1, 1, 3], [3, 3, 1, 3, 1]]","[5, 4, 9, 2, 10]",14,7,4,0.059,0.05833333333333333,0.0006666666666666666,"[22, 24]",2,extreme,5,5,6758,2,178,176,8.134400110375934e+18,attentional-mouselab,11,186521,3
mouselab,False,[18],"[[7, 7, 5, 3, 5], [4, 5, 5, 9, 5], [2, 6, 3, 6, 7], [6, 8, 2, 7, 6], [4, 5, 5, 4, 7]]","[[3, 3, 1, 3, 1], [3, 3, 1, 3, 3], [3, 3, 1, 3, 1], [3, 3, 3, 1, 3], [3, 3, 3, 3, 3]]","[6, 1, 6, 14, 3]",16,8,3,0.058,0.05766666666666667,0.0003333333333333333,[18],1,random,5,5,7102,1,173,172,1.2634240091604267e+19,attentional-mouselab,12,195128,3
mouselab,False,"[20, 24, 4]","[[7, 3, 3, 5, 7], [8, 6, 8, 5, 7], [7, 5, 2, 3, 7], [4, 3, 6, 5, 3], [4, 6, 4, 5, 7]]","[[1, 3, 3, 1, 1], [3, 1, 3, 3, 3], [3, 3, 3, 3, 3], [3, 3, 3, 3, 3], [1, 3, 3, 3, 1]]","[8, 3, 1, 7, 11]",16,9,4,0.061,0.06,0.001,"[20, 24, 4]",3,random,5,5,5218,3,182,179,1.11429347850481e+19,attentional-mouselab,13,201841,3
mouselab,False,"[9, 13, 8, 8, 8]","[[5, 6, 5, 6, 7], [5, 4, 6, 3, 2], [3, 4, 6, 7, 6], [7, 5, 5, 5, 3], [5, 6, 5, 10, 7]]","[[1, 3, 3, 3, 3], [3, 3, 3, 3, 1], [3, 3, 3, 1, 3], [1, 3, 3, 3, 3], [3, 1, 3, 1, 3]]","[1, 15, 9, 4, 1]",24,10,3,0.048,0.04633333333333334,0.0016666666666666668,"[9, 13, 8]",3,extreme,5,5,13944,5,144,139,4.810340774590892e+18,attentional-mouselab,14,217441,3
mouselab,False,"[15, 18]","[[2, 5, 5, 4, 6], [7, 4, 4, 6, 6], [4, 3, 5, 4, 7], [4, 3, 4, 8, 5], [4, 6, 5, 6, 7]]","[[3, 3, 3, 3, 3], [1, 3, 3, 3, 3], [3, 3, 3, 3, 1], [1, 3, 3, 1, 3], [3, 1, 3, 3, 1]]","[7, 5, 3, 13, 2]",16,11,3,0.062,0.06133333333333333,0.0006666666666666666,"[15, 18]",2,random,5,5,3954,2,186,184,1.1050529541466264e+19,attentional-mouselab,15,222722,3
mouselab,False,"[0, 10]","[[6, 3, 5, 3, 7], [6, 6, 7, 6, 3], [9, 9, 6, 7, 2], [5, 6, 3, 3, 6], [5, 4, 4, 5, 2]]","[[1, 3, 3, 3, 3], [1, 1, 3, 3, 3], [1, 3, 3, 3, 3], [1, 3, 3, 3, 3], [3, 3, 3, 3, 1]]","[10, 5, 9, 5, 1]",14,12,0,0.067,0.06633333333333334,0.0006666666666666666,"[0, 10]",2,greedy,5,5,3687,2,201,199,1.1832157126158033e+19,attentional-mouselab,16,227714,3
mouselab,False,"[15, 18, 0, 3, 3, 3]","[[3, 4, 6, 6, 2], [4, 7, 3, 4, 8], [7, 7, 5, 4, 6], [4, 2, 4, 4, 5], [6, 6, 8, 6, 2]]","[[1, 1, 3, 3, 3], [1, 3, 3, 3, 3], [1, 3, 3, 3, 3], [1, 3, 3, 1, 3], [3, 3, 3, 3, 3]]","[7, 3, 3, 14, 3]",18,13,3,0.047,0.045,0.002,"[15, 18, 0, 3]",4,random,5,5,7352,6,140,134,2.2388146674612803e+18,attentional-mouselab,17,236971,3
mouselab,False,"[15, 0]","[[10, 6, 7, 6, 7], [3, 5, 4, 8, 3], [7, 4, 6, 7, 4], [8, 6, 5, 3, 5], [5, 5, 6, 3, 6]]","[[1, 3, 3, 3, 1], [3, 3, 3, 1, 3], [1, 1, 3, 3, 3], [1, 3, 3, 3, 3], [3, 3, 3, 3, 3]]","[10, 5, 1, 10, 4]",16,14,0,0.074,0.07333333333333333,0.0006666666666666666,"[15, 0]",2,extreme,5,5,5429,2,222,220,1.4535916847150473e+19,attentional-mouselab,18,244682,3
mouselab,False,"[22, 22, 22, 21, 21, 21, 24, 24, 24, 11, 1]","[[5, 8, 7, 3, 5], [5, 5, 5, 7, 4], [4, 4, 7, 7, 6], [6, 3, 2, 2, 6], [7, 5, 4, 2, 5]]","[[3, 1, 3, 3, 3], [3, 3, 3, 3, 3], [3, 1, 1, 3, 1], [3, 3, 1, 1, 3], [3, 3, 3, 3, 3]]","[5, 9, 5, 1, 10]",14,15,1,0.053,0.04933333333333333,0.0036666666666666666,"[22, 21, 24, 11, 1]",5,extreme,5,5,18774,11,158,147,5.743978512800616e+17,attentional-mouselab,19,265026,3
mouselab,False,"[3, 4, 8, 9]","[[6, 5, 5, 1, 1], [4, 3, 6, 4, 0], [8, 6, 3, 5, 3], [7, 4, 6, 3, 6], [7, 7, 3, 4, 3]]","[[3, 3, 3, 1, 1], [3, 3, 3, 1, 1], [3, 3, 1, 3, 3], [3, 3, 3, 3, 3], [3, 3, 1, 3, 3]]","[20, 4, 2, 3, 1]",28,16,3,0.02,0.018666666666666668,0.0013333333333333333,"[3, 4, 8, 9]",4,extreme,5,5,7258,4,59,55,9.708128652112919e+18,attentional-mouselab,20,274150,3
mouselab,False,"[20, 22, 5]","[[6, 5, 5, 4, 5], [7, 7, 5, 3, 6], [6, 6, 3, 6, 0], [5, 7, 6, 7, 9], [9, 3, 6, 4, 5]]","[[3, 3, 3, 3, 3], [1, 3, 3, 3, 3], [1, 3, 3, 3, 1], [3, 3, 1, 3, 3], [1, 3, 1, 3, 3]]","[10, 6, 1, 3, 10]",16,17,0,0.071,0.06999999999999999,0.001,"[20, 22, 5]",3,greedy,5,5,7374,3,213,210,1.0087389533550698e+19,attentional-mouselab,21,282618,3
mouselab,False,"[4, 24, 19]","[[3, 4, 3, 6, 3], [5, 7, 6, 5, 4], [5, 4, 4, 6, 4], [4, 5, 5, 2, 7], [5, 6, 5, 5, 8]]","[[3, 3, 3, 3, 1], [3, 3, 3, 3, 3], [3, 3, 3, 3, 3], [3, 3, 1, 1, 1], [3, 3, 3, 1, 1]]","[11, 4, 2, 6, 7]",12,18,4,0.052,0.051,0.001,"[4, 24, 19]",3,extreme,5,5,6898,3,155,152,1.5159880995206423e+19,attentional-mouselab,22,290806,3
mouselab,False,"[15, 17, 14]","[[6, 8, 5, 4, 9], [7, 6, 7, 4, 6], [6, 5, 7, 5, 0], [5, 4, 6, 4, 5], [6, 5, 8, 8, 6]]","[[3, 3, 3, 3, 3], [3, 3, 1, 3, 3], [3, 1, 3, 3, 1], [1, 3, 1, 3, 3], [3, 1, 3, 3, 3]]","[4, 2, 8, 10, 6]",12,19,2,0.066,0.065,0.001,"[15, 17, 14]",3,random,5,5,8264,3,198,195,8.131144188909566e+18,attentional-mouselab,23,300415,3
mouselab,False,"[16, 17, 18, 1, 1, 1, 3, 3, 3]","[[5, 4, 5, 3, 5], [5, 4, 6, 2, 6], [7, 7, 9, 4, 8], [4, 6, 2, 4, 5], [3, 7, 3, 8, 2]]","[[3, 3, 3, 3, 3], [3, 3, 3, 3, 3], [3, 3, 1, 3, 3], [3, 1, 1, 1, 3], [3, 1, 1, 3, 3]]","[11, 6, 2, 10, 1]",18,20,1,0.05,0.047,0.003,"[16, 17, 18, 1, 3]",5,greedy,5,5,13289,9,149,140,5.823177038562571e+18,attentional-mouselab,24,314898,3
mouselab,False,"[9, 5, 10, 0, 0, 0]","[[5, 5, 4, 5, 10], [4, 3, 5, 4, 4], [7, 8, 4, 7, 5], [5, 4, 7, 9, 4], [3, 4, 7, 6, 3]]","[[3, 3, 3, 3, 3], [1, 3, 3, 3, 1], [1, 3, 3, 3, 3], [1, 3, 3, 3, 3], [1, 3, 1, 3, 3]]","[12, 7, 6, 3, 2]",14,21,0,0.05,0.048,0.002,"[9, 5, 10, 0]",4,random,5,5,7663,6,151,145,5.406180987374297e+18,attentional-mouselab,25,323969,3
mouselab,False,"[7, 5, 10, 10, 10]","[[5, 2, 6, 7, 2], [7, 5, 3, 8, 8], [4, 7, 7, 3, 6], [7, 4, 8, 5, 5], [7, 6, 8, 4, 2]]","[[3, 3, 1, 3, 3], [1, 3, 1, 3, 3], [3, 3, 1, 3, 3], [3, 3, 1, 3, 3], [3, 3, 3, 1, 3]]","[3, 15, 6, 4, 2]",18,22,0,0.062,0.060333333333333336,0.0016666666666666668,"[7, 5, 10]",3,greedy,5,5,7084,5,186,181,9.19307076632864e+18,attentional-mouselab,26,332398,3
mouselab,False,"[24, 14, 14, 14]","[[7, 4, 7, 9, 6], [5, 6, 3, 3, 7], [5, 4, 6, 7, 7], [7, 2, 6, 3, 4], [6, 6, 3, 4, 6]]","[[1, 3, 3, 1, 3], [1, 3, 3, 3, 3], [3, 3, 3, 3, 3], [1, 1, 3, 3, 3], [3, 3, 3, 3, 1]]","[1, 7, 10, 1, 11]",20,23,4,0.065,0.06366666666666666,0.0013333333333333333,"[24, 14]",2,extreme,5,5,4983,4,195,191,7.205724724100445e+18,attentional-mouselab,27,338555,3
mouselab,False,"[5, 9, 4, 4, 4]","[[5, 3, 5, 4, 6], [2, 6, 5, 3, 5], [7, 6, 5, 7, 5], [2, 7, 5, 4, 6], [7, 1, 3, 5, 3]]","[[3, 3, 3, 3, 3], [1, 3, 3, 3, 1], [1, 3, 3, 3, 3], [1, 3, 1, 3, 3], [3, 1, 3, 3, 3]]","[10, 10, 5, 2, 3]",16,24,4,0.052,0.050333333333333334,0.0016666666666666668,"[5, 9, 4]",3,extreme,5,5,5312,5,156,151,5.329986013490377e+18,attentional-mouselab,28,345086,3
mouselab,False,"[1, 4, 9, 9, 9]","[[7, 2, 3, 4, 7], [5, 3, 4, 6, 5], [1, 5, 4, 9, 7], [6, 5, 6, 7, 5], [5, 4, 7, 6, 7]]","[[3, 1, 3, 3, 1], [3, 3, 3, 3, 3], [3, 1, 1, 1, 3], [3, 3, 3, 3, 3], [3, 3, 3, 3, 1]]","[7, 8, 6, 6, 3]",6,25,4,0.061,0.059333333333333335,0.0016666666666666668,"[1, 4, 9]",3,greedy,5,5,5600,5,182,177,7.944417417070703e+18,attentional-mouselab,29,351716,3
mouselab,False,"[8, 9, 3, 3, 3]","[[4, 5, 4, 5, 6], [7, 3, 5, 8, 3], [4, 4, 7, 8, 5], [4, 4, 7, 3, 5], [3, 4, 4, 7, 5]]","[[3, 3, 3, 3, 3], [3, 3, 3, 1, 1], [3, 3, 3, 1, 3], [3, 3, 1, 3, 3], [1, 3, 3, 1, 3]]","[11, 7, 5, 5, 2]",12,26,3,0.06,0.058333333333333334,0.0016666666666666668,"[8, 9, 3]",3,greedy,5,5,6508,5,180,175,4.103790811733906e+18,attentional-mouselab,30,359320,3
mouselab,False,"[13, 14, 9, 9, 9]","[[3, 6, 5, 1, 3], [5, 8, 5, 5, 4], [6, 5, 6, 5, 7], [10, 3, 6, 3, 8], [7, 5, 6, 5, 4]]","[[3, 3, 3, 3, 3], [3, 3, 3, 3, 3], [3, 3, 3, 1, 1], [3, 3, 1, 1, 3], [3, 1, 3, 1, 3]]","[9, 9, 5, 3, 4]",12,27,4,0.046,0.044333333333333336,0.0016666666666666668,"[13, 14, 9]",3,random,5,5,5889,5,138,133,1.7267536881199784e+19,attentional-mouselab,31,366295,3
mouselab,False,"[22, 23, 24]","[[3, 4, 5, 10, 7], [6, 4, 5, 5, 4], [4, 8, 3, 5, 4], [1, 5, 5, 6, 3], [6, 4, 6, 4, 8]]","[[3, 3, 3, 1, 3], [3, 1, 3, 3, 3], [3, 3, 3, 3, 3], [1, 3, 3, 3, 3], [3, 3, 1, 1, 1]]","[6, 6, 2, 6, 10]",8,28,4,0.057,0.056,0.001,"[22, 23, 24]",3,extreme,5,5,6283,3,172,169,3.006792488503815e+16,attentional-mouselab,32,373522,3
mouselab,False,"[9, 6, 1, 1, 1]","[[7, 6, 6, 8, 4], [8, 9, 4, 3, 1], [5, 7, 2, 6, 5], [9, 5, 5, 7, 1], [8, 2, 5, 3, 5]]","[[3, 3, 3, 3, 3], [1, 1, 3, 3, 1], [3, 3, 3, 3, 1], [1, 3, 3, 3, 1], [3, 3, 3, 3, 3]]","[13, 6, 2, 2, 7]",16,29,1,0.057,0.05533333333333334,0.0016666666666666668,"[9, 6, 1]",3,extreme,5,5,7953,5,170,165,1.0531175009633925e+19,attentional-mouselab,33,383382,3
mouselab,False,"[19, 6, 24, 24, 24]","[[5, 2, 4, 6, 1], [4, 5, 5, 6, 4], [5, 4, 4, 7, 6], [5, 4, 1, 5, 7], [3, 5, 5, 6, 8]]","[[3, 1, 3, 3, 1], [3, 1, 3, 3, 3], [3, 3, 3, 1, 1], [3, 3, 3, 3, 1], [3, 3, 3, 3, 3]]","[1, 5, 4, 5, 15]",18,30,4,0.067,0.06533333333333334,0.0016666666666666668,"[19, 6, 24]",3,greedy,5,5,6406,5,200,195,4.565372338938213e+18,attentional-mouselab,34,391982,3
mouselab,False,"[8, 8, 8, 23]","[[2, 7, 3, 9, 2], [3, 6, 5, 4, 6], [4, 2, 7, 5, 5], [5, 6, 3, 5, 3], [8, 7, 6, 7, 9]]","[[3, 3, 3, 1, 3], [3, 3, 3, 3, 3], [3, 3, 3, 3, 3], [3, 3, 1, 3, 3], [1, 1, 3, 1, 1]]","[2, 13, 8, 2, 5]",18,31,3,0.052,0.050666666666666665,0.0013333333333333333,"[8, 23]",2,greedy,5,5,9454,4,155,151,5.111992305554721e+18,attentional-mouselab,35,402490,3
mouselab,False,"[13, 3, 3, 3]","[[3, 3, 3, 4, 5], [4, 5, 5, 7, 6], [5, 4, 4, 7, 1], [5, 7, 3, 2, 6], [7, 4, 6, 6, 3]]","[[3, 3, 3, 3, 3], [3, 3, 3, 1, 3], [3, 3, 3, 1, 3], [3, 1, 3, 3, 3], [3, 1, 1, 3, 1]]","[8, 4, 7, 5, 6]",6,32,3,0.052,0.050666666666666665,0.0013333333333333333,"[13, 3]",2,greedy,5,5,6218,4,155,151,7.795021730287827e+17,attentional-mouselab,36,409990,3
mouselab,True,"[5, 5, 5, 7, 7, 7, 7, 4, 4, 4, 8, 8, 8, 8, 18, 14, 24, 11, 15, 21, 1, 1, 1, 1, 6, 6, 6, 6, 16, 16, 16, 2, 2, 2, 12, 12, 12, 17, 17, 17, 22, 22, 22, 13, 13, 13, 10, 10, 10, 20, 20, 20, 20, 23, 23, 23, 23, 19, 19, 19, 19, 4, 9, 9, 9, 3, 3, 3, 3]","[[5, 5, 7, 8, 5], [4, 4, 5, 3, 1], [3, 3, 9, 3, 6], [1, 4, 7, 6, 7], [6, 2, 6, 5, 7]]","[[3, 3, 3, 3, 3], [3, 3, 3, 3, 3], [3, 1, 3, 3, 1], [1, 3, 3, 1, 3], [3, 1, 3, 3, 1]]","[5, 3, 6, 6, 10]",8,1,2,0.069,0.049,0.02,"[5, 7, 4, 8, 18, 14, 24, 11, 15, 21, 1, 6, 16, 2, 12, 17, 22, 13, 10, 20, 23, 19, 9, 3]",24,random,5,5,50788,60,206,146,1.5753772127699126e+18,attentional-mouselab,4,127428,4
mouselab,True,"[0, 0, 0, 5, 10, 10, 10, 10, 15, 15, 15, 20, 20, 20]","[[7, 5, 4, 3, 5], [5, 5, 6, 1, 5], [2, 4, 6, 5, 7], [5, 7, 1, 6, 5], [4, 5, 5, 6, 5]]","[[3, 3, 3, 3, 3], [1, 3, 3, 3, 3], [3, 3, 1, 1, 3], [3, 1, 1, 3, 1], [3, 3, 3, 3, 3]]","[3, 5, 3, 15, 4]",18,2,0,0.048,0.043666666666666666,0.004333333333333333,"[0, 5, 10, 15, 20]",5,random,5,5,10338,13,143,130,1.889358731601123e+18,attentional-mouselab,5,139181,4
mouselab,False,"[21, 17, 13, 8, 18, 18, 18, 18, 18, 23, 3, 3, 3, 3, 6, 6, 6, 6, 9, 9, 9, 14, 14, 14, 14, 19, 19, 19, 19, 24, 24, 24, 24, 4, 4, 4]","[[6, 4, 5, 4, 6], [5, 4, 7, 4, 6], [6, 6, 6, 4, 7], [6, 5, 4, 2, 4], [6, 5, 5, 7, 5]]","[[3, 3, 3, 3, 3], [1, 3, 3, 1, 3], [3, 3, 3, 1, 3], [3, 3, 1, 3, 3], [3, 1, 3, 1, 3]]","[1, 8, 6, 7, 8]",10,3,4,0.055,0.04533333333333334,0.009666666666666667,"[21, 17, 13, 8, 18, 23, 3, 6, 9, 14, 19, 24, 4]",13,random,5,5,16072,29,164,135,3.494131955680876e+18,attentional-mouselab,7,158417,4
mouselab,False,"[0, 0, 0, 0, 5, 5, 5, 5, 10, 10, 10, 15, 15, 15, 15, 20, 20, 20]","[[7, 4, 6, 4, 6], [7, 5, 7, 6, 2], [4, 3, 5, 4, 5], [4, 5, 7, 5, 2], [5, 5, 3, 7, 8]]","[[3, 1, 3, 3, 3], [3, 1, 1, 3, 1], [3, 3, 3, 3, 3], [3, 3, 1, 3, 3], [3, 3, 3, 1, 3]]","[9, 2, 4, 4, 11]",16,4,0,0.055,0.05,0.005,"[0, 5, 10, 15, 20]",5,greedy,5,5,7883,15,164,149,3.14157045354594e+18,attentional-mouselab,8,167398,4
mouselab,False,[],"[[5, 7, 4, 4, 2], [5, 7, 3, 4, 6], [6, 1, 5, 5, 5], [4, 6, 6, 2, 7], [3, 6, 4, 3, 7]]","[[3, 3, 3, 1, 1], [3, 1, 3, 3, 3], [1, 3, 3, 3, 3], [3, 1, 3, 1, 3], [3, 3, 3, 3, 3]]","[1, 4, 11, 5, 9]",16,5,2,0.046,0.046,0.0,[],0,random,5,5,2301,0,137,137,6.565432419174812e+18,attentional-mouselab,9,173832,4
mouselab,False,"[3, 3, 3, 2, 2, 2, 2]","[[4, 6, 4, 6, 7], [4, 4, 7, 6, 7], [2, 6, 6, 5, 3], [6, 5, 5, 3, 3], [6, 4, 6, 7, 5]]","[[1, 3, 3, 3, 1], [3, 3, 3, 3, 1], [3, 1, 3, 3, 3], [3, 3, 3, 3, 3], [3, 1, 3, 3, 1]]","[2, 11, 6, 3, 8]",14,6,3,0.058,0.056,0.002,"[3, 2]",2,random,5,5,4862,6,173,167,1.337152635705731e+19,attentional-mouselab,10,180622,4
mouselab,False,"[4, 4, 4, 9, 9, 9, 14, 14, 14]","[[5, 4, 6, 5, 2], [4, 3, 4, 4, 8], [4, 3, 5, 4, 4], [5, 8, 6, 4, 4], [4, 4, 5, 5, 2]]","[[3, 3, 3, 3, 3], [1, 3, 1, 3, 1], [3, 1, 3, 1, 3], [3, 1, 3, 3, 3], [3, 3, 3, 3, 3]]","[1, 16, 2, 10, 1]",28,7,4,0.06,0.057666666666666665,0.0023333333333333335,"[4, 9, 14]",3,greedy,5,5,5580,7,180,173,1.6982077363855792e+19,attentional-mouselab,11,187519,4
mouselab,False,"[11, 11, 11, 11, 13, 13, 13, 13, 8, 8, 8]","[[7, 3, 3, 5, 7], [8, 6, 8, 5, 7], [7, 5, 2, 3, 7], [4, 3, 6, 5, 3], [4, 6, 4, 5, 7]]","[[3, 3, 3, 3, 1], [1, 3, 1, 3, 3], [3, 3, 1, 3, 3], [3, 3, 3, 3, 3], [1, 3, 3, 3, 1]]","[2, 2, 5, 3, 18]",24,8,1,0.053,0.049999999999999996,0.003,"[11, 13, 8]",3,extreme,5,5,6280,9,160,151,1.11429347850481e+19,attentional-mouselab,12,195517,4
mouselab,False,"[5, 5, 5, 5, 10, 10, 10, 10]","[[6, 6, 5, 6, 2], [7, 2, 5, 7, 5], [6, 7, 3, 5, 5], [5, 5, 2, 7, 5], [4, 7, 5, 6, 5]]","[[3, 3, 3, 3, 1], [3, 1, 1, 1, 3], [3, 3, 3, 3, 3], [3, 3, 1, 3, 1], [3, 3, 3, 3, 3]]","[17, 6, 2, 3, 2]",22,9,0,0.06,0.057999999999999996,0.002,"[5, 10]",2,extreme,5,5,3559,6,179,173,2.7121735666158694e+18,attentional-mouselab,13,201420,4
mouselab,False,[],"[[5, 7, 4, 6, 4], [6, 4, 6, 2, 2], [4, 3, 4, 4, 4], [5, 7, 3, 7, 1], [6, 2, 6, 3, 6]]","[[3, 3, 3, 3, 3], [3, 1, 1, 1, 3], [3, 3, 3, 3, 3], [3, 3, 3, 1, 3], [3, 3, 1, 1, 3]]","[7, 10, 8, 3, 2]",14,10,4,0.032,0.032,0.0,[],0,random,5,5,1878,0,95,95,6.960088424482077e+17,attentional-mouselab,14,204478,4
mouselab,False,[],"[[5, 7, 4, 4, 6], [7, 6, 6, 7, 5], [8, 6, 5, 6, 5], [3, 5, 3, 3, 7], [2, 4, 6, 3, 4]]","[[3, 3, 3, 3, 3], [3, 3, 1, 3, 1], [3, 3, 1, 1, 3], [3, 3, 3, 3, 1], [3, 3, 3, 3, 1]]","[11, 3, 14, 1, 1]",26,11,0,0.064,0.064,0.0,[],0,random,5,5,1040,0,193,193,1.6547492586410926e+18,attentional-mouselab,15,206676,4
mouselab,False,[],"[[5, 5, 5, 4, 5], [7, 4, 7, 3, 5], [4, 5, 3, 5, 6], [6, 7, 6, 8, 7], [6, 6, 1, 2, 6]]","[[3, 3, 3, 1, 3], [3, 3, 3, 1, 3], [3, 3, 3, 3, 3], [1, 3, 3, 1, 3], [3, 3, 1, 1, 3]]","[2, 11, 8, 3, 6]",14,12,1,0.05,0.05,0.0,[],0,extreme,5,5,1602,0,151,151,1.3917350054211869e+19,attentional-mouselab,16,209886,4
mouselab,False,[],"[[6, 5, 2, 4, 5], [2, 7, 6, 6, 3], [5, 4, 8, 3, 9], [4, 6, 5, 5, 3], [3, 3, 4, 6, 6]]","[[3, 3, 3, 3, 1], [3, 1, 3, 3, 3], [3, 3, 3, 1, 1], [3, 1, 3, 3, 3], [3, 3, 3, 3, 1]]","[11, 6, 6, 3, 4]",10,13,2,0.046,0.046,0.0,[],0,greedy,5,5,1643,0,137,137,1.8266753468254888e+19,attentional-mouselab,17,213156,4
mouselab,False,[],"[[8, 4, 3, 4, 5], [6, 3, 6, 7, 5], [6, 4, 4, 4, 3], [3, 2, 3, 8, 3], [4, 10, 5, 6, 8]]","[[1, 3, 3, 3, 3], [3, 1, 3, 3, 1], [1, 3, 3, 3, 3], [1, 3, 3, 3, 3], [1, 3, 3, 3, 3]]","[1, 14, 2, 11, 2]",26,14,3,0.07,0.07,0.0,[],0,random,5,5,7548,0,210,210,1.437015433756807e+19,attentional-mouselab,18,221982,4
mouselab,False,[],"[[5, 6, 7, 4, 7], [5, 6, 8, 5, 7], [4, 3, 7, 3, 8], [5, 1, 9, 3, 4], [3, 3, 5, 4, 6]]","[[3, 3, 3, 3, 3], [3, 3, 1, 1, 3], [3, 3, 3, 3, 1], [3, 1, 1, 3, 3], [3, 3, 1, 3, 3]]","[5, 6, 2, 2, 15]",18,15,0,0.039,0.039,0.0,[],0,extreme,5,5,1221,0,118,118,9.455410224978106e+18,attentional-mouselab,19,224387,4
mouselab,False,"[12, 22]","[[2, 6, 6, 4, 7], [6, 5, 7, 5, 6], [2, 4, 5, 6, 5], [7, 7, 5, 6, 7], [6, 4, 9, 8, 0]]","[[1, 3, 3, 3, 3], [3, 3, 3, 3, 3], [3, 1, 1, 3, 3], [3, 3, 3, 1, 3], [3, 3, 1, 3, 1]]","[4, 1, 9, 12, 4]",18,16,2,0.057,0.05633333333333333,0.0006666666666666666,"[12, 22]",2,extreme,5,5,3679,2,172,170,4.4404918724369556e+18,attentional-mouselab,20,229309,4
mouselab,False,"[16, 14, 9, 6]","[[2, 4, 5, 7, 5], [0, 7, 6, 6, 6], [3, 7, 1, 4, 3], [8, 7, 4, 7, 6], [5, 7, 5, 5, 6]]","[[1, 3, 3, 3, 3], [3, 1, 3, 3, 1], [3, 3, 3, 3, 1], [3, 1, 3, 3, 3], [3, 1, 3, 3, 3]]","[3, 12, 2, 6, 7]",14,17,1,0.067,0.06566666666666666,0.0013333333333333333,"[16, 14, 9, 6]",4,greedy,5,5,4213,4,201,197,1.4451296704122728e+19,attentional-mouselab,21,235555,4
mouselab,False,"[17, 23, 19]","[[3, 6, 5, 1, 3], [5, 8, 5, 5, 4], [6, 5, 6, 5, 7], [10, 3, 6, 3, 8], [7, 5, 6, 5, 4]]","[[3, 3, 3, 1, 3], [3, 3, 3, 3, 3], [3, 3, 3, 3, 3], [1, 3, 1, 3, 1], [3, 1, 3, 1, 3]]","[4, 8, 6, 2, 10]",12,18,4,0.047,0.046,0.001,"[17, 23, 19]",3,extreme,5,5,4117,3,142,139,1.7267536881199784e+19,attentional-mouselab,22,241924,4
mouselab,False,"[9, 8, 8, 8, 8, 12, 12, 12, 12, 11, 11, 11, 15, 15, 15, 5, 5]","[[7, 5, 4, 5, 6], [2, 8, 2, 4, 4], [2, 4, 3, 4, 5], [7, 6, 8, 5, 3], [4, 7, 5, 6, 8]]","[[3, 3, 3, 3, 3], [1, 1, 3, 3, 1], [1, 3, 3, 3, 3], [3, 1, 3, 3, 3], [3, 1, 3, 3, 3]]","[2, 13, 2, 8, 5]",18,19,0,0.04,0.035333333333333335,0.004666666666666667,"[9, 8, 12, 11, 15, 5]",6,greedy,5,5,13456,14,120,106,1.5943934567639034e+19,attentional-mouselab,23,256259,4
mouselab,False,"[10, 10, 10, 8, 8, 9, 9, 19, 19]","[[4, 8, 3, 7, 5], [1, 6, 4, 4, 6], [5, 5, 4, 4, 4], [7, 5, 3, 8, 5], [3, 7, 4, 9, 2]]","[[3, 3, 3, 3, 3], [3, 3, 3, 1, 1], [3, 3, 3, 3, 3], [3, 1, 3, 3, 1], [3, 3, 1, 3, 1]]","[5, 5, 3, 11, 6]",10,20,4,0.045,0.043,0.002,"[10, 8, 9, 19]",4,random,5,5,6377,6,134,128,3.490318631844119e+18,attentional-mouselab,24,264270,4
mouselab,False,"[6, 6, 6, 11, 11, 11]","[[5, 3, 4, 7, 4], [6, 3, 6, 4, 8], [4, 7, 4, 4, 7], [6, 3, 5, 3, 5], [6, 6, 7, 4, 7]]","[[3, 3, 3, 3, 3], [1, 3, 3, 3, 1], [3, 3, 3, 3, 1], [3, 3, 1, 3, 3], [3, 3, 1, 3, 1]]","[2, 13, 1, 10, 4]",22,21,1,0.035,0.033,0.002,"[6, 11]",2,greedy,5,5,4871,6,106,100,4.978975502146608e+18,attentional-mouselab,25,270533,4
mouselab,False,"[16, 16, 16, 11, 11, 11]","[[8, 6, 3, 5, 5], [2, 1, 4, 5, 3], [4, 4, 7, 7, 4], [5, 4, 6, 7, 4], [2, 5, 6, 0, 5]]","[[1, 3, 3, 3, 1], [1, 3, 1, 3, 3], [3, 3, 3, 1, 3], [3, 3, 3, 3, 3], [3, 3, 3, 1, 3]]","[6, 6, 5, 5, 8]",4,22,1,0.041,0.039,0.002,"[16, 11]",2,random,5,5,5758,6,122,116,1.164071090691912e+19,attentional-mouselab,26,277366,4
mouselab,False,"[14, 14, 14]","[[6, 4, 5, 3, 5], [4, 4, 5, 7, 3], [6, 3, 4, 7, 4], [5, 2, 5, 9, 3], [7, 7, 5, 4, 8]]","[[3, 3, 1, 3, 3], [3, 3, 3, 1, 3], [3, 3, 3, 1, 3], [3, 1, 3, 1, 3], [1, 3, 3, 3, 3]]","[3, 3, 1, 10, 13]",22,23,4,0.054,0.053,0.001,[14],1,greedy,5,5,2692,3,162,159,2.2683888503039677e+18,attentional-mouselab,27,281425,4
mouselab,False,[],"[[7, 6, 5, 5, 7], [8, 5, 5, 5, 5], [5, 7, 10, 4, 6], [5, 8, 4, 0, 3], [3, 6, 4, 7, 5]]","[[3, 1, 3, 3, 3], [3, 1, 3, 3, 3], [3, 3, 1, 3, 3], [1, 1, 3, 3, 3], [3, 1, 3, 3, 3]]","[1, 7, 13, 5, 4]",16,24,4,0.052,0.052,0.0,[],0,greedy,5,5,1520,0,155,155,1.4897088407450878e+19,attentional-mouselab,28,284132,4
mouselab,False,[],"[[3, 1, 3, 3, 5], [5, 3, 6, 9, 6], [8, 8, 5, 4, 6], [5, 4, 5, 3, 6], [4, 4, 6, 4, 6]]","[[3, 3, 3, 3, 1], [3, 1, 1, 3, 1], [1, 3, 3, 3, 3], [3, 3, 3, 3, 1], [3, 3, 3, 3, 3]]","[6, 16, 2, 2, 4]",20,25,3,0.064,0.064,0.0,[],0,greedy,5,5,854,0,192,192,1.119539916130844e+18,attentional-mouselab,29,286897,4
mouselab,False,"[11, 11, 8, 18]","[[7, 5, 4, 6, 4], [2, 7, 7, 7, 5], [5, 4, 7, 3, 3], [5, 1, 4, 7, 8], [4, 4, 8, 7, 5]]","[[3, 3, 3, 3, 3], [1, 3, 3, 1, 3], [3, 1, 1, 3, 3], [3, 3, 3, 1, 3], [3, 3, 1, 3, 3]]","[4, 2, 7, 1, 16]",22,26,3,0.059,0.057999999999999996,0.001,"[11, 8, 18]",3,greedy,5,5,3221,3,178,175,1.803864834104613e+18,attentional-mouselab,30,292134,4
mouselab,False,"[11, 2, 3, 22, 13]","[[4, 5, 1, 4, 6], [4, 6, 2, 4, 5], [5, 1, 6, 10, 2], [7, 2, 4, 5, 4], [3, 4, 4, 6, 4]]","[[3, 3, 1, 1, 3], [3, 3, 3, 3, 3], [3, 1, 3, 1, 3], [3, 3, 3, 3, 3], [1, 3, 1, 3, 3]]","[14, 1, 4, 7, 4]",18,27,3,0.053,0.051333333333333335,0.0016666666666666668,"[11, 2, 3, 22, 13]",5,extreme,5,5,7321,5,159,154,8.158765956003463e+18,attentional-mouselab,31,304204,4
mouselab,False,"[17, 18, 7, 7, 7, 7]","[[5, 5, 5, 3, 7], [2, 5, 9, 8, 5], [6, 5, 4, 6, 5], [4, 5, 8, 1, 5], [5, 4, 4, 7, 8]]","[[3, 3, 3, 3, 3], [3, 3, 3, 3, 3], [1, 3, 3, 3, 3], [1, 3, 1, 1, 1], [1, 3, 3, 3, 3]]","[2, 1, 10, 16, 1]",28,28,2,0.064,0.06233333333333334,0.0016666666666666668,"[17, 18, 7]",3,random,5,5,5313,5,191,186,1.766185000801501e+19,attentional-mouselab,32,310393,4
mouselab,False,[24],"[[7, 6, 6, 5, 6], [7, 5, 5, 6, 5], [6, 6, 5, 4, 4], [4, 3, 6, 5, 5], [2, 5, 2, 6, 5]]","[[3, 3, 1, 3, 3], [1, 3, 3, 3, 3], [3, 1, 3, 3, 3], [3, 3, 3, 3, 3], [1, 3, 1, 3, 1]]","[3, 3, 8, 10, 6]",12,29,4,0.048,0.04766666666666667,0.0003333333333333333,[24],1,extreme,5,5,2507,1,145,144,2.4463455232519414e+18,attentional-mouselab,33,314585,4
mouselab,False,"[8, 8, 8, 8]","[[5, 6, 3, 5, 4], [6, 5, 6, 6, 6], [6, 5, 6, 6, 6], [7, 5, 3, 6, 5], [4, 3, 6, 3, 5]]","[[3, 3, 1, 3, 3], [3, 3, 3, 3, 3], [3, 1, 1, 3, 3], [1, 3, 3, 3, 3], [1, 3, 3, 1, 3]]","[2, 2, 1, 23, 2]",34,30,3,0.057,0.056,0.001,[8],1,extreme,5,5,3155,3,172,169,1.1976857462046e+19,attentional-mouselab,34,318692,4
mouselab,False,"[12, 12, 12, 12]","[[6, 5, 2, 3, 4], [2, 2, 7, 5, 5], [3, 5, 3, 5, 1], [1, 9, 3, 6, 6], [8, 3, 3, 5, 5]]","[[3, 3, 3, 1, 3], [1, 3, 3, 3, 3], [3, 1, 3, 3, 1], [1, 1, 3, 3, 3], [3, 3, 3, 3, 3]]","[3, 5, 1, 20, 1]",28,31,2,0.036,0.034999999999999996,0.001,[12],1,extreme,5,5,2203,3,107,104,1.8289155612482466e+19,attentional-mouselab,35,321807,4
mouselab,False,"[12, 12, 12]","[[4, 6, 5, 8, 10], [3, 4, 5, 3, 9], [4, 2, 4, 8, 6], [4, 9, 8, 6, 6], [3, 4, 5, 5, 5]]","[[3, 3, 3, 3, 1], [3, 1, 3, 1, 3], [1, 3, 3, 3, 3], [1, 3, 3, 1, 3], [3, 3, 3, 3, 3]]","[9, 5, 5, 9, 2]",12,32,2,0.057,0.056,0.001,[12],1,random,5,5,2700,3,172,169,9.082589867785506e+18,attentional-mouselab,36,325557,4
mouselab,True,"[13, 10, 10, 10, 23, 18, 11, 11, 11, 14, 14, 14]","[[5, 2, 5, 7, 7], [5, 6, 4, 8, 4], [6, 4, 7, 6, 6], [6, 3, 5, 6, 10], [7, 4, 6, 2, 4]]","[[3, 3, 1, 3, 3], [3, 3, 3, 3, 3], [3, 3, 3, 1, 3], [3, 3, 1, 1, 3], [3, 1, 3, 1, 3]]","[4, 1, 16, 6, 3]",20,1,3,0.058,0.054000000000000006,0.004,"[13, 10, 23, 18, 11, 14]",6,random,5,5,34055,12,174,162,1.08172466924294e+19,attentional-mouselab,4,185940,5
mouselab,True,"[4, 1, 2, 22, 22, 22, 7, 7, 7]","[[5, 5, 7, 7, 6], [4, 3, 9, 4, 9], [4, 2, 8, 6, 5], [6, 3, 7, 3, 5], [8, 4, 2, 5, 6]]","[[3, 1, 1, 3, 1], [3, 3, 3, 3, 3], [3, 3, 3, 1, 3], [3, 3, 3, 3, 3], [3, 1, 3, 1, 3]]","[9, 7, 5, 2, 7]",10,2,2,0.065,0.062,0.003,"[4, 1, 2, 22, 7]",5,random,5,5,16870,9,194,185,8.355431930210012e+17,attentional-mouselab,5,206213,5
mouselab,False,"[17, 17, 7, 5, 1, 2]","[[7, 4, 8, 6, 7], [4, 7, 7, 7, 6], [5, 7, 5, 5, 6], [8, 7, 7, 3, 2], [2, 5, 6, 3, 7]]","[[3, 1, 1, 3, 3], [1, 3, 1, 3, 3], [3, 3, 3, 3, 3], [3, 3, 1, 1, 3], [3, 3, 3, 3, 3]]","[13, 11, 1, 2, 3]",24,3,2,0.073,0.07133333333333333,0.0016666666666666668,"[17, 7, 5, 1, 2]",5,greedy,5,5,8575,5,218,213,3.228134042053133e+18,attentional-mouselab,7,221266,5
mouselab,False,"[3, 4, 18, 1, 1, 1, 16, 16, 16]","[[5, 7, 4, 4, 2], [5, 7, 3, 4, 6], [6, 1, 5, 5, 5], [4, 6, 6, 2, 7], [3, 6, 4, 3, 7]]","[[3, 3, 3, 1, 1], [3, 1, 3, 3, 3], [1, 1, 3, 3, 3], [3, 3, 3, 1, 3], [3, 3, 3, 3, 3]]","[11, 3, 2, 9, 5]",16,4,1,0.061,0.057999999999999996,0.003,"[3, 4, 18, 1, 16]",5,extreme,5,5,17133,9,184,175,6.565432419174812e+18,attentional-mouselab,8,242354,5
mouselab,False,"[2, 12, 14, 4, 4, 4, 1, 1, 1, 10, 0, 0, 0]","[[4, 7, 9, 6, 7], [5, 2, 5, 5, 7], [8, 6, 2, 3, 3], [5, 3, 7, 4, 4], [6, 10, 5, 4, 2]]","[[3, 3, 1, 3, 3], [3, 1, 3, 3, 3], [1, 3, 1, 3, 1], [3, 3, 3, 3, 3], [3, 1, 3, 3, 3]]","[15, 3, 7, 3, 2]",20,5,2,0.065,0.06066666666666667,0.004333333333333333,"[2, 12, 14, 4, 1, 10, 0]",7,extreme,5,5,20568,13,195,182,1.7424764187364504e+19,attentional-mouselab,9,264889,5
mouselab,False,"[0, 6, 7, 8, 2, 2, 2, 5, 5, 5]","[[3, 4, 5, 6, 5], [6, 2, 8, 6, 6], [7, 6, 5, 5, 2], [4, 6, 6, 6, 5], [5, 4, 5, 5, 6]]","[[1, 3, 3, 3, 3], [3, 1, 1, 1, 3], [3, 3, 3, 3, 1], [3, 3, 3, 3, 1], [3, 3, 3, 3, 3]]","[10, 9, 1, 8, 2]",18,6,2,0.062,0.058666666666666666,0.0033333333333333335,"[0, 6, 7, 8, 2, 5]",6,extreme,5,5,13907,10,185,175,5.248115953398281e+17,attentional-mouselab,10,282494,5
mouselab,False,"[11, 11, 11, 14, 14, 14, 10, 10, 10, 16, 15]","[[3, 4, 4, 8, 6], [7, 9, 6, 3, 5], [7, 4, 6, 7, 5], [9, 8, 6, 6, 5], [5, 6, 5, 5, 5]]","[[3, 3, 3, 3, 1], [1, 1, 3, 3, 3], [3, 3, 3, 3, 3], [1, 1, 1, 3, 3], [3, 3, 3, 3, 3]]","[5, 1, 21, 2, 1]",30,7,0,0.064,0.060333333333333336,0.0036666666666666666,"[11, 14, 10, 16, 15]",5,extreme,5,5,14936,11,192,181,1.391850412060688e+19,attentional-mouselab,11,299508,5
mouselab,False,"[17, 4, 2, 2, 2, 19, 19, 19, 16, 16, 16, 1, 1, 1]","[[8, 6, 5, 4, 5], [5, 6, 2, 4, 6], [8, 6, 5, 3, 5], [0, 4, 6, 5, 4], [6, 6, 4, 5, 5]]","[[3, 3, 3, 3, 1], [3, 1, 3, 3, 3], [1, 1, 3, 1, 3], [3, 3, 1, 3, 3], [3, 3, 3, 3, 3]]","[9, 2, 1, 14, 4]",22,8,2,0.051,0.04633333333333333,0.004666666666666667,"[17, 4, 2, 19, 16, 1]",6,random,5,5,21512,14,154,140,1.5149515208993202e+19,attentional-mouselab,12,322275,5
mouselab,False,"[21, 20, 6, 5, 5, 5]","[[6, 7, 5, 4, 7], [5, 3, 5, 7, 3], [2, 6, 7, 7, 3], [7, 5, 3, 3, 6], [8, 5, 4, 1, 5]]","[[3, 1, 3, 1, 3], [3, 1, 3, 3, 3], [3, 3, 3, 3, 3], [3, 1, 3, 3, 3], [1, 1, 3, 3, 3]]","[1, 8, 3, 3, 15]",22,9,0,0.064,0.062,0.002,"[21, 20, 6, 5]",4,random,5,5,6722,6,193,187,5.790454138643734e+18,attentional-mouselab,13,330599,5
mouselab,False,"[19, 3, 2, 1, 18, 18, 18]","[[7, 4, 4, 6, 8], [7, 1, 8, 4, 6], [7, 6, 6, 4, 3], [6, 4, 7, 2, 7], [4, 6, 4, 8, 3]]","[[3, 1, 1, 1, 3], [3, 3, 3, 1, 3], [1, 3, 3, 3, 3], [3, 3, 3, 3, 1], [3, 3, 3, 3, 3]]","[8, 5, 3, 12, 2]",16,10,4,0.064,0.06166666666666667,0.0023333333333333335,"[19, 3, 2, 1, 18]",5,random,5,5,10689,7,193,186,9.40154973208547e+18,attentional-mouselab,14,342734,5
mouselab,False,"[17, 19, 21, 22, 22, 22, 24, 24, 24, 14]","[[5, 7, 6, 6, 4], [5, 7, 6, 6, 5], [3, 10, 5, 3, 5], [4, 5, 4, 7, 6], [6, 4, 3, 4, 7]]","[[3, 3, 3, 3, 3], [1, 1, 3, 3, 3], [3, 3, 3, 3, 1], [3, 3, 1, 3, 1], [3, 1, 3, 3, 3]]","[1, 8, 4, 9, 8]",14,11,4,0.058,0.05466666666666667,0.0033333333333333335,"[17, 19, 21, 22, 24, 14]",6,random,5,5,10993,10,174,164,1.0158661613714375e+19,attentional-mouselab,15,355403,5
mouselab,False,"[23, 3, 1, 4, 24, 24, 24]","[[4, 4, 7, 6, 7], [6, 6, 7, 9, 4], [6, 1, 5, 6, 7], [4, 6, 4, 4, 8], [7, 4, 2, 8, 6]]","[[3, 1, 3, 1, 1], [3, 3, 3, 1, 3], [3, 3, 3, 3, 3], [3, 3, 1, 3, 3], [3, 3, 3, 1, 3]]","[8, 6, 4, 1, 11]",14,12,3,0.073,0.07066666666666666,0.0023333333333333335,"[23, 3, 1, 4, 24]",5,greedy,5,5,9687,7,218,211,1.0488374301423161e+19,attentional-mouselab,16,367831,5
mouselab,False,"[20, 22, 5, 7, 7, 7]","[[6, 4, 4, 6, 5], [6, 7, 4, 2, 6], [6, 2, 5, 4, 3], [2, 5, 4, 0, 5], [7, 4, 5, 4, 5]]","[[3, 3, 1, 3, 3], [1, 3, 3, 3, 3], [3, 1, 3, 1, 3], [3, 3, 3, 3, 3], [1, 3, 1, 3, 3]]","[3, 6, 1, 4, 16]",20,13,0,0.06,0.057999999999999996,0.002,"[20, 22, 5, 7]",4,greedy,5,5,6998,6,180,174,4.536221223743875e+18,attentional-mouselab,17,376540,5
mouselab,False,"[22, 24, 12, 12, 12, 14, 14, 14, 9, 7]","[[5, 3, 5, 3, 3], [6, 3, 7, 4, 4], [4, 8, 4, 4, 7], [4, 4, 4, 5, 2], [7, 6, 6, 5, 4]]","[[3, 3, 3, 3, 3], [3, 1, 1, 3, 1], [3, 3, 3, 3, 3], [3, 1, 3, 3, 3], [3, 3, 1, 3, 1]]","[1, 6, 12, 1, 10]",20,14,4,0.051,0.04766666666666666,0.0033333333333333335,"[22, 24, 12, 14, 9, 7]",6,random,5,5,27694,10,153,143,6.982778503665275e+17,attentional-mouselab,18,405725,5
mouselab,False,"[15, 5, 1, 4, 9, 9, 9, 16, 16, 16, 19, 19, 19, 6, 6, 6]","[[5, 3, 6, 4, 7], [8, 4, 3, 6, 6], [3, 1, 5, 3, 5], [7, 5, 7, 6, 5], [4, 7, 4, 6, 5]]","[[3, 1, 3, 3, 1], [1, 3, 3, 3, 3], [3, 1, 3, 3, 3], [1, 3, 3, 3, 3], [3, 3, 3, 1, 3]]","[7, 7, 2, 12, 2]",16,15,0,0.063,0.057666666666666665,0.005333333333333333,"[15, 5, 1, 4, 9, 16, 19, 6]",8,greedy,5,5,25384,16,189,173,4.625169416512939e+18,attentional-mouselab,19,432575,5
mouselab,False,"[4, 9, 20, 6, 0, 0, 0]","[[4, 5, 3, 2, 5], [7, 2, 2, 6, 5], [4, 4, 4, 7, 6], [7, 7, 7, 2, 6], [9, 5, 6, 7, 5]]","[[3, 3, 3, 3, 1], [3, 1, 3, 3, 1], [3, 3, 3, 3, 1], [3, 3, 3, 1, 3], [1, 3, 3, 3, 3]]","[11, 6, 5, 2, 6]",10,16,4,0.052,0.049666666666666665,0.0023333333333333335,"[4, 9, 20, 6, 0]",5,extreme,5,5,15074,7,157,150,4.1311357090231926e+18,attentional-mouselab,20,449182,5
mouselab,False,"[0, 10, 23, 20, 3, 3, 3, 13, 13, 13]","[[3, 5, 4, 6, 7], [6, 4, 6, 4, 2], [5, 3, 5, 7, 3], [0, 5, 8, 4, 5], [4, 4, 7, 1, 3]]","[[1, 3, 3, 3, 3], [3, 3, 3, 3, 1], [1, 3, 3, 3, 3], [1, 3, 3, 3, 3], [1, 3, 3, 1, 3]]","[10, 2, 8, 2, 8]",16,17,3,0.047,0.043666666666666666,0.0033333333333333335,"[0, 10, 23, 20, 3, 13]",6,extreme,5,5,19417,10,140,130,9.934107181755748e+18,attentional-mouselab,21,469717,5
mouselab,False,"[1, 2, 2, 2, 0, 0, 0, 4, 4, 4, 3, 3, 3, 6]","[[2, 4, 4, 4, 4], [5, 3, 6, 5, 5], [5, 7, 6, 3, 5], [7, 8, 5, 4, 1], [5, 6, 7, 7, 7]]","[[3, 1, 3, 3, 3], [3, 1, 3, 3, 3], [3, 1, 3, 3, 1], [3, 1, 3, 3, 3], [3, 3, 1, 3, 3]]","[18, 4, 1, 4, 3]",24,18,1,0.047,0.042333333333333334,0.004666666666666667,"[1, 2, 0, 4, 3, 6]",6,greedy,5,5,13689,14,141,127,1.6451022408697885e+19,attentional-mouselab,22,484663,5
mouselab,False,"[10, 6, 5, 5, 5, 11, 11, 11]","[[6, 6, 3, 4, 7], [6, 2, 6, 5, 2], [5, 7, 5, 4, 7], [6, 2, 5, 7, 9], [7, 2, 3, 5, 3]]","[[3, 1, 1, 3, 1], [3, 1, 3, 3, 3], [1, 3, 3, 3, 3], [3, 3, 3, 3, 1], [3, 3, 3, 3, 3]]","[1, 9, 10, 2, 8]",18,19,0,0.059,0.05633333333333333,0.0026666666666666666,"[10, 6, 5, 11]",4,random,5,5,16020,8,178,170,1.2846762042217832e+19,attentional-mouselab,23,502076,5
mouselab,False,"[5, 20, 20, 20]","[[5, 2, 8, 3, 3], [9, 6, 5, 6, 3], [5, 5, 8, 6, 4], [8, 5, 5, 4, 3], [6, 6, 5, 6, 8]]","[[3, 3, 1, 1, 3], [1, 3, 3, 3, 3], [3, 3, 1, 1, 3], [1, 3, 3, 3, 3], [3, 3, 3, 3, 3]]","[3, 8, 4, 4, 11]",14,20,0,0.068,0.06666666666666667,0.0013333333333333333,"[5, 20]",2,extreme,5,5,5860,4,205,201,1.0236133257037568e+19,attentional-mouselab,24,509347,5
mouselab,False,"[6, 5, 1, 0, 0, 0]","[[6, 7, 5, 7, 5], [8, 3, 6, 5, 7], [4, 3, 6, 3, 1], [4, 2, 4, 7, 4], [2, 6, 6, 5, 9]]","[[3, 1, 3, 3, 3], [1, 1, 3, 3, 3], [1, 3, 3, 3, 3], [3, 1, 3, 3, 3], [3, 3, 3, 3, 1]]","[9, 13, 3, 3, 2]",20,21,0,0.062,0.06,0.002,"[6, 5, 1, 0]",4,random,5,5,6961,6,186,180,5.938478265524406e+18,attentional-mouselab,25,517690,5
mouselab,False,"[6, 9, 14, 11, 11, 11]","[[2, 4, 5, 7, 5], [0, 7, 6, 6, 6], [3, 7, 1, 4, 3], [8, 7, 4, 7, 6], [5, 7, 5, 5, 6]]","[[1, 3, 3, 3, 3], [3, 1, 3, 3, 1], [3, 3, 3, 3, 1], [3, 1, 3, 3, 3], [3, 1, 3, 3, 3]]","[2, 17, 7, 2, 2]",24,22,1,0.068,0.066,0.002,"[6, 9, 14, 11]",4,greedy,5,5,7992,6,204,198,1.4451296704122728e+19,attentional-mouselab,26,526951,5
mouselab,False,"[6, 8, 24, 21, 21, 21, 23, 23, 23]","[[7, 4, 5, 7, 3], [6, 6, 6, 4, 6], [5, 7, 2, 5, 5], [6, 5, 7, 4, 5], [3, 5, 4, 6, 7]]","[[3, 3, 3, 1, 3], [3, 1, 3, 1, 3], [1, 3, 3, 3, 3], [3, 3, 3, 1, 3], [3, 3, 3, 3, 1]]","[4, 12, 6, 1, 7]",14,23,1,0.057,0.054,0.003,"[6, 8, 24, 21, 23]",5,random,5,5,11382,9,170,161,5.277253179100978e+18,attentional-mouselab,27,539475,5
mouselab,False,"[7, 2, 8, 4, 3, 3, 3]","[[7, 2, 8, 6, 2], [5, 2, 6, 6, 6], [7, 5, 6, 4, 3], [5, 5, 5, 6, 6], [5, 3, 6, 6, 5]]","[[3, 3, 1, 3, 1], [3, 3, 1, 1, 3], [3, 3, 1, 3, 3], [3, 3, 3, 3, 3], [3, 3, 1, 3, 3]]","[11, 10, 5, 3, 1]",18,24,2,0.066,0.06366666666666666,0.0023333333333333335,"[7, 2, 8, 4, 3]",5,greedy,5,5,6991,7,199,192,1.6530559453271742e+19,attentional-mouselab,28,547546,5
mouselab,False,"[14, 6, 5, 11, 11, 11, 10, 10, 10, 9]","[[7, 6, 6, 8, 4], [8, 9, 4, 3, 1], [5, 7, 2, 6, 5], [9, 5, 5, 7, 1], [8, 2, 5, 3, 5]]","[[3, 3, 3, 3, 3], [1, 1, 3, 3, 1], [3, 3, 3, 3, 1], [1, 3, 3, 3, 1], [3, 3, 3, 3, 3]]","[1, 4, 16, 2, 7]",22,25,4,0.042,0.03866666666666667,0.0033333333333333335,"[14, 6, 5, 11, 10, 9]",6,extreme,5,5,16821,10,125,115,1.0531175009633925e+19,attentional-mouselab,29,565441,5
mouselab,False,"[5, 9, 15, 15, 15, 19, 19, 19]","[[6, 7, 6, 4, 7], [8, 5, 5, 6, 5], [4, 1, 6, 4, 5], [5, 7, 2, 6, 4], [3, 7, 3, 3, 5]]","[[3, 1, 3, 3, 3], [1, 3, 3, 3, 1], [3, 1, 3, 3, 3], [3, 1, 1, 3, 3], [3, 3, 3, 3, 3]]","[3, 13, 5, 5, 4]",14,26,0,0.06,0.05733333333333333,0.0026666666666666666,"[5, 9, 15, 19]",4,extreme,5,5,9551,8,179,171,2.3993884887445304e+18,attentional-mouselab,30,575872,5
mouselab,False,"[22, 23, 2, 2, 2]","[[5, 5, 5, 4, 6], [3, 4, 6, 5, 6], [6, 6, 5, 5, 8], [8, 5, 6, 7, 4], [5, 4, 7, 6, 3]]","[[1, 3, 3, 3, 3], [3, 3, 1, 3, 3], [3, 3, 3, 3, 1], [1, 3, 3, 3, 3], [3, 3, 1, 1, 3]]","[7, 3, 1, 8, 11]",16,27,2,0.061,0.059333333333333335,0.0016666666666666668,"[22, 23, 2]",3,greedy,5,5,6781,5,183,178,1.404949352904566e+19,attentional-mouselab,31,584700,5
mouselab,False,"[7, 9, 12, 14, 14, 14]","[[5, 4, 6, 6, 5], [4, 4, 7, 4, 6], [3, 3, 5, 3, 5], [5, 5, 5, 3, 6], [8, 5, 6, 5, 3]]","[[3, 1, 3, 3, 3], [3, 3, 1, 3, 1], [3, 3, 1, 3, 3], [3, 3, 3, 1, 3], [1, 3, 3, 3, 3]]","[2, 12, 8, 5, 3]",16,28,2,0.06,0.057999999999999996,0.002,"[7, 9, 12, 14]",4,extreme,5,5,8470,6,179,173,3.0680427063147213e+18,attentional-mouselab,32,595012,5
mouselab,False,"[20, 14, 24, 24, 24, 10, 10, 10]","[[6, 8, 3, 6, 6], [4, 7, 6, 6, 6], [5, 7, 4, 5, 6], [5, 5, 6, 10, 5], [4, 8, 4, 3, 8]]","[[3, 1, 3, 1, 3], [3, 3, 1, 3, 3], [3, 3, 3, 3, 1], [3, 1, 3, 3, 3], [1, 3, 3, 3, 3]]","[2, 8, 9, 2, 9]",16,29,4,0.065,0.06233333333333334,0.0026666666666666666,"[20, 14, 24, 10]",4,random,5,5,8000,8,196,188,9.300619125008536e+18,attentional-mouselab,33,604626,5
mouselab,False,"[6, 9, 14]","[[5, 2, 2, 9, 3], [3, 5, 4, 5, 7], [5, 4, 4, 1, 7], [3, 8, 6, 6, 7], [3, 6, 5, 2, 2]]","[[3, 1, 3, 1, 1], [3, 1, 3, 3, 1], [3, 3, 3, 3, 1], [3, 3, 3, 3, 3], [3, 3, 3, 3, 3]]","[3, 10, 13, 1, 3]",22,30,4,0.061,0.06,0.001,"[6, 9, 14]",3,greedy,5,5,5047,3,183,180,1.3926450257687615e+19,attentional-mouselab,34,611214,5
mouselab,False,"[5, 8, 10, 13, 13, 13]","[[4, 4, 5, 7, 4], [8, 5, 6, 8, 6], [9, 2, 3, 6, 5], [6, 7, 6, 6, 5], [7, 7, 0, 2, 6]]","[[3, 3, 3, 3, 3], [1, 3, 3, 1, 3], [1, 3, 3, 3, 3], [1, 3, 3, 3, 3], [1, 3, 3, 3, 1]]","[4, 16, 7, 2, 1]",22,31,0,0.075,0.073,0.002,"[5, 8, 10, 13]",4,greedy,5,5,6704,6,226,220,1.3186851384954366e+19,attentional-mouselab,35,620270,5
mouselab,False,"[17, 11, 11, 11, 12, 12, 12]","[[5, 6, 6, 4, 7], [6, 6, 4, 8, 4], [5, 4, 6, 5, 5], [4, 7, 5, 2, 7], [8, 6, 6, 4, 8]]","[[3, 1, 3, 3, 3], [1, 1, 1, 3, 3], [3, 3, 3, 3, 3], [3, 3, 1, 3, 3], [3, 3, 3, 1, 3]]","[5, 3, 11, 7, 4]",12,32,2,0.056,0.05366666666666667,0.0023333333333333335,"[17, 11, 12]",3,random,5,5,10368,7,167,160,6.659352403456838e+18,attentional-mouselab,36,631819,5
mouselab,True,"[2, 6, 7, 5]","[[7, 3, 3, 5, 7], [5, 4, 8, 6, 5], [3, 4, 8, 7, 4], [7, 5, 5, 6, 6], [7, 8, 4, 5, 5]]","[[3, 3, 1, 1, 3], [1, 3, 3, 1, 3], [3, 3, 3, 3, 3], [3, 3, 3, 3, 1], [3, 1, 3, 3, 3]]","[12, 7, 3, 2, 6]",14,1,0,0.061,0.059666666666666666,0.0013333333333333333,"[2, 5]",2,random,5,5,18698,4,184,180,2.2490039976860588e+18,attentional-mouselab,4,385907,6
mouselab,True,[],"[[4, 5, 7, 8, 5], [6, 3, 5, 8, 4], [5, 7, 7, 5, 6], [4, 3, 4, 7, 4], [5, 8, 8, 6, 3]]","[[3, 3, 1, 3, 1], [1, 3, 3, 3, 3], [3, 3, 3, 3, 3], [1, 3, 1, 3, 3], [3, 3, 1, 3, 3]]","[3, 16, 4, 2, 5]",20,2,3,0.072,0.072,0.0,[],0,random,5,5,1907,0,216,216,3.639959125033018e+16,attentional-mouselab,5,393437,6
mouselab,False,[],"[[4, 7, 5, 7, 3], [5, 4, 6, 5, 5], [5, 4, 2, 5, 1], [7, 8, 6, 5, 4], [3, 5, 6, 6, 8]]","[[3, 3, 3, 3, 3], [3, 3, 3, 3, 3], [3, 3, 1, 3, 1], [1, 1, 3, 3, 3], [1, 3, 3, 3, 1]]","[1, 6, 12, 3, 8]",16,3,1,0.048,0.048,0.0,[],0,extreme,5,5,2831,0,143,143,1.300148036859529e+19,attentional-mouselab,7,402094,6
mouselab,False,[],"[[6, 5, 2, 6, 2], [2, 5, 3, 6, 8], [7, 6, 6, 8, 4], [7, 7, 4, 5, 3], [5, 3, 7, 5, 4]]","[[3, 1, 3, 3, 3], [3, 1, 3, 3, 3], [3, 3, 1, 3, 1], [3, 3, 3, 3, 3], [3, 1, 1, 3, 3]]","[4, 6, 15, 1, 4]",18,4,3,0.068,0.068,0.0,[],0,random,5,5,2028,0,205,205,8.550636600569846e+18,attentional-mouselab,8,407954,6
mouselab,False,[],"[[5, 1, 4, 4, 5], [5, 1, 6, 1, 5], [5, 6, 2, 4, 5], [5, 8, 7, 5, 3], [7, 6, 1, 5, 2]]","[[3, 3, 3, 3, 1], [1, 1, 3, 1, 3], [1, 3, 3, 3, 3], [3, 3, 3, 3, 3], [3, 3, 3, 1, 3]]","[6, 4, 3, 1, 16]",20,5,0,0.061,0.061,0.0,[],0,random,5,5,1708,0,182,182,1.214193870219712e+19,attentional-mouselab,9,414996,6
mouselab,False,[],"[[1, 5, 2, 7, 8], [8, 5, 5, 8, 3], [3, 6, 2, 6, 1], [8, 4, 7, 5, 6], [3, 6, 8, 2, 5]]","[[3, 3, 3, 1, 3], [3, 3, 3, 1, 3], [3, 1, 3, 1, 3], [3, 3, 3, 3, 1], [3, 3, 1, 3, 3]]","[12, 3, 2, 10, 3]",20,6,1,0.048,0.048,0.0,[],0,greedy,5,5,1590,0,145,145,1.0532060995726828e+19,attentional-mouselab,10,419681,6
mouselab,False,[],"[[3, 5, 3, 4, 4], [6, 4, 4, 5, 4], [1, 7, 6, 4, 8], [7, 2, 5, 5, 5], [4, 8, 3, 6, 3]]","[[3, 1, 3, 3, 3], [3, 3, 3, 1, 3], [1, 3, 3, 3, 1], [3, 1, 3, 3, 3], [3, 1, 3, 3, 3]]","[4, 11, 3, 8, 4]",14,7,2,0.042,0.042,0.0,[],0,extreme,5,5,1672,0,126,126,1.43158332957991e+19,attentional-mouselab,11,424914,6
mouselab,False,[],"[[7, 7, 4, 2, 7], [9, 2, 3, 2, 5], [5, 5, 5, 4, 5], [5, 5, 6, 4, 4], [7, 6, 5, 5, 9]]","[[3, 3, 3, 3, 3], [1, 3, 3, 3, 3], [3, 3, 1, 1, 1], [3, 3, 3, 3, 1], [3, 1, 3, 3, 3]]","[2, 1, 15, 2, 10]",26,8,4,0.064,0.064,0.0,[],0,random,5,5,1342,0,192,192,1.7086180172175768e+19,attentional-mouselab,12,428637,6
mouselab,False,[],"[[7, 4, 5, 7, 3], [6, 6, 6, 4, 6], [5, 7, 2, 5, 5], [6, 5, 7, 4, 5], [3, 5, 4, 6, 7]]","[[3, 3, 3, 1, 1], [3, 3, 3, 1, 3], [1, 3, 1, 3, 3], [3, 3, 1, 3, 3], [3, 3, 3, 3, 3]]","[5, 4, 11, 1, 9]",16,9,1,0.057,0.057,0.0,[],0,extreme,5,5,1363,0,171,171,5.277253179100978e+18,attentional-mouselab,13,432200,6
mouselab,False,[],"[[6, 6, 4, 7, 6], [6, 8, 4, 9, 6], [4, 3, 4, 3, 5], [7, 1, 2, 7, 6], [4, 6, 6, 5, 7]]","[[3, 3, 1, 1, 3], [3, 3, 1, 3, 1], [3, 3, 3, 3, 3], [3, 3, 3, 3, 3], [3, 3, 3, 1, 1]]","[7, 6, 4, 11, 2]",12,10,1,0.042,0.042,0.0,[],0,random,5,5,1380,0,125,125,7.535496658907554e+18,attentional-mouselab,14,435287,6
mouselab,False,[],"[[5, 5, 6, 8, 6], [5, 5, 4, 4, 4], [5, 6, 8, 5, 5], [4, 8, 5, 4, 4], [6, 4, 3, 5, 5]]","[[1, 3, 3, 1, 3], [1, 3, 3, 3, 3], [3, 3, 1, 3, 3], [3, 1, 3, 3, 3], [3, 3, 1, 3, 3]]","[7, 2, 5, 5, 11]",12,11,0,0.052,0.052,0.0,[],0,greedy,5,5,1150,0,156,156,1.286653556694672e+19,attentional-mouselab,15,438623,6
mouselab,False,[],"[[3, 6, 6, 3, 6], [3, 6, 8, 7, 5], [5, 5, 2, 2, 2], [5, 6, 5, 6, 5], [3, 4, 5, 5, 7]]","[[3, 1, 3, 3, 3], [1, 3, 1, 3, 3], [3, 3, 3, 3, 3], [3, 1, 1, 3, 3], [3, 3, 3, 3, 1]]","[4, 9, 3, 11, 3]",16,12,3,0.054,0.054,0.0,[],0,greedy,5,5,1239,0,162,162,9.313025682289837e+17,attentional-mouselab,16,443073,6
mouselab,False,[],"[[4, 4, 6, 5, 3], [4, 6, 5, 5, 6], [7, 6, 6, 8, 3], [5, 3, 5, 2, 8], [4, 8, 6, 3, 5]]","[[3, 3, 3, 1, 3], [3, 1, 3, 3, 1], [3, 3, 3, 3, 3], [3, 1, 3, 3, 1], [3, 3, 3, 3, 1]]","[1, 4, 7, 8, 10]",14,13,2,0.056,0.056,0.0,[],0,random,5,5,1258,0,168,168,1.4978217556395629e+19,attentional-mouselab,17,447045,6
mouselab,False,[],"[[4, 4, 4, 5, 5], [9, 5, 8, 6, 3], [5, 6, 3, 5, 5], [4, 3, 2, 4, 4], [4, 5, 8, 5, 4]]","[[3, 3, 3, 1, 3], [1, 3, 1, 3, 3], [3, 3, 3, 3, 3], [1, 3, 3, 3, 3], [3, 3, 1, 3, 1]]","[11, 7, 5, 2, 5]",12,14,1,0.047,0.047,0.0,[],0,extreme,5,5,1224,0,140,140,5.2173428594752e+18,attentional-mouselab,18,450236,6
mouselab,False,[],"[[4, 4, 5, 3, 8], [2, 1, 5, 5, 6], [4, 7, 6, 9, 4], [6, 5, 7, 7, 4], [4, 4, 5, 7, 2]]","[[3, 1, 3, 3, 1], [1, 1, 3, 3, 3], [3, 3, 3, 1, 3], [3, 3, 3, 3, 3], [3, 3, 3, 3, 1]]","[3, 13, 10, 1, 3]",22,15,2,0.054,0.054,0.0,[],0,extreme,5,5,1623,0,162,162,7.076351468939137e+18,attentional-mouselab,19,453605,6
mouselab,False,[],"[[2, 7, 7, 4, 2], [6, 4, 3, 6, 3], [5, 6, 3, 3, 4], [4, 5, 6, 5, 3], [6, 6, 6, 5, 3]]","[[1, 3, 3, 3, 1], [3, 3, 3, 3, 3], [3, 3, 3, 3, 3], [3, 3, 1, 3, 3], [3, 1, 3, 1, 1]]","[20, 2, 2, 1, 5]",28,16,4,0.024,0.024,0.0,[],0,extreme,5,5,1208,0,72,72,1.65046309462598e+19,attentional-mouselab,20,457015,6
mouselab,False,[],"[[2, 5, 6, 5, 7], [7, 9, 7, 4, 5], [5, 4, 5, 3, 4], [6, 7, 4, 7, 7], [5, 5, 6, 4, 5]]","[[3, 3, 3, 3, 1], [3, 1, 1, 3, 3], [3, 3, 3, 1, 3], [3, 1, 3, 3, 3], [3, 3, 3, 1, 3]]","[6, 7, 4, 12, 1]",14,17,0,0.053,0.053,0.0,[],0,greedy,5,5,1066,0,158,158,7.108802734760316e+18,attentional-mouselab,21,461275,6
mouselab,False,[],"[[4, 5, 3, 6, 7], [4, 4, 6, 4, 7], [6, 6, 6, 4, 6], [6, 2, 5, 6, 3], [6, 4, 3, 8, 6]]","[[3, 3, 3, 1, 1], [3, 3, 3, 3, 3], [3, 1, 3, 3, 3], [3, 1, 3, 3, 3], [3, 3, 3, 1, 1]]","[4, 11, 10, 4, 1]",18,18,1,0.045,0.045,0.0,[],0,extreme,5,5,1496,0,136,136,4.144734896444138e+18,attentional-mouselab,22,464802,6
mouselab,False,[],"[[4, 8, 3, 6, 3], [4, 3, 5, 6, 7], [5, 4, 5, 9, 5], [7, 6, 3, 4, 4], [6, 6, 3, 5, 4]]","[[3, 3, 1, 3, 3], [3, 3, 1, 3, 1], [3, 3, 3, 3, 3], [3, 3, 3, 1, 3], [1, 1, 3, 3, 3]]","[4, 6, 7, 6, 7]",4,19,0,0.053,0.053,0.0,[],0,random,5,5,1241,0,159,159,1.5569567674519329e+19,attentional-mouselab,23,467750,6
mouselab,False,[],"[[9, 5, 4, 6, 6], [3, 3, 5, 6, 2], [2, 5, 5, 5, 5], [4, 5, 5, 7, 5], [5, 6, 5, 4, 6]]","[[1, 3, 3, 3, 3], [1, 3, 3, 1, 3], [3, 3, 3, 3, 3], [3, 3, 3, 1, 1], [1, 3, 3, 3, 3]]","[1, 5, 2, 16, 6]",20,20,2,0.05,0.05,0.0,[],0,greedy,5,5,1031,0,149,149,2.7473220626791066e+18,attentional-mouselab,24,470478,6
mouselab,False,[],"[[4, 8, 8, 5, 3], [6, 7, 5, 7, 5], [3, 4, 5, 6, 3], [4, 7, 4, 5, 4], [3, 5, 5, 5, 6]]","[[3, 1, 3, 3, 1], [3, 1, 1, 3, 3], [3, 3, 3, 3, 3], [3, 1, 3, 3, 3], [3, 3, 3, 1, 3]]","[14, 7, 1, 4, 4]",18,21,3,0.055,0.055,0.0,[],0,greedy,5,5,1201,0,165,165,1.8714326633125565e+18,attentional-mouselab,25,473507,6
mouselab,False,[],"[[7, 5, 4, 5, 6], [6, 8, 4, 4, 2], [5, 6, 6, 6, 5], [5, 5, 9, 6, 7], [4, 5, 6, 4, 9]]","[[3, 1, 3, 3, 3], [3, 3, 3, 3, 1], [1, 3, 3, 3, 1], [3, 1, 3, 3, 3], [3, 3, 3, 1, 3]]","[2, 10, 4, 1, 13]",22,22,0,0.05,0.05,0.0,[],0,random,5,5,1273,0,151,151,4.3664257981984343e+18,attentional-mouselab,26,476877,6
mouselab,False,[],"[[5, 7, 7, 4, 8], [8, 4, 8, 7, 8], [4, 2, 6, 8, 2], [4, 6, 9, 7, 5], [5, 3, 4, 4, 7]]","[[3, 3, 3, 3, 1], [3, 1, 3, 3, 3], [1, 1, 3, 3, 3], [3, 3, 3, 3, 3], [3, 1, 3, 3, 1]]","[5, 2, 12, 2, 9]",18,23,2,0.059,0.059,0.0,[],0,random,5,5,2142,0,177,177,1.99917608312655e+18,attentional-mouselab,27,480749,6
mouselab,False,[],"[[4, 8, 4, 4, 3], [5, 5, 8, 1, 8], [5, 5, 7, 6, 5], [1, 5, 4, 3, 7], [5, 7, 4, 4, 2]]","[[3, 3, 3, 1, 3], [1, 3, 3, 1, 3], [3, 3, 1, 3, 3], [1, 3, 3, 3, 3], [3, 3, 3, 3, 1]]","[5, 6, 2, 14, 3]",16,24,1,0.057,0.057,0.0,[],0,extreme,5,5,1078,0,171,171,8.083467036448633e+18,attentional-mouselab,28,484079,6
mouselab,False,[],"[[4, 4, 3, 5, 6], [6, 4, 2, 6, 4], [7, 4, 3, 6, 7], [2, 4, 7, 4, 1], [8, 6, 3, 7, 5]]","[[3, 3, 3, 1, 1], [3, 3, 1, 1, 3], [1, 3, 3, 3, 3], [3, 3, 3, 3, 3], [1, 3, 3, 3, 3]]","[3, 6, 8, 2, 11]",14,25,1,0.047,0.047,0.0,[],0,greedy,5,5,1436,0,142,142,6.919505098836647e+18,attentional-mouselab,29,487157,6
mouselab,False,[],"[[5, 7, 5, 6, 4], [3, 3, 5, 5, 2], [5, 8, 7, 4, 4], [4, 3, 4, 3, 5], [5, 2, 7, 4, 3]]","[[3, 3, 3, 3, 3], [3, 1, 1, 3, 1], [3, 1, 3, 3, 3], [3, 3, 3, 3, 3], [3, 1, 3, 3, 1]]","[4, 2, 9, 10, 5]",14,26,3,0.04,0.04,0.0,[],0,extreme,5,5,1582,0,120,120,2.57949102427321e+17,attentional-mouselab,30,490469,6
mouselab,False,[],"[[7, 3, 4, 4, 4], [4, 4, 6, 7, 6], [6, 7, 4, 6, 2], [6, 7, 5, 4, 2], [4, 7, 4, 6, 7]]","[[3, 1, 3, 1, 3], [3, 3, 3, 3, 3], [3, 3, 3, 1, 3], [3, 3, 1, 1, 3], [1, 3, 3, 3, 3]]","[5, 11, 4, 9, 1]",16,27,0,0.054,0.054,0.0,[],0,random,5,5,1663,0,161,161,9.621805578893343e+17,attentional-mouselab,31,493986,6
mouselab,False,[],"[[6, 4, 3, 6, 6], [6, 4, 5, 5, 4], [6, 1, 5, 3, 6], [3, 6, 8, 6, 5], [4, 5, 6, 5, 3]]","[[3, 3, 3, 3, 3], [3, 1, 3, 3, 3], [3, 3, 3, 3, 3], [1, 3, 1, 3, 1], [3, 1, 1, 3, 3]]","[10, 2, 12, 5, 1]",20,28,2,0.049,0.049,0.0,[],0,random,5,5,1233,0,146,146,1.3404757924130589e+19,attentional-mouselab,32,497567,6
mouselab,False,[],"[[3, 4, 4, 4, 4], [5, 3, 3, 7, 5], [5, 4, 6, 3, 4], [4, 4, 7, 6, 9], [8, 2, 3, 4, 6]]","[[3, 3, 1, 3, 3], [1, 3, 3, 1, 3], [3, 3, 1, 3, 3], [3, 3, 3, 3, 1], [1, 3, 3, 3, 3]]","[10, 7, 1, 2, 10]",18,29,4,0.052,0.052,0.0,[],0,greedy,5,5,1364,0,157,157,1.80435734829298e+19,attentional-mouselab,33,501132,6
mouselab,False,[],"[[6, 4, 5, 7, 4], [4, 6, 6, 7, 5], [5, 4, 4, 3, 0], [2, 3, 9, 4, 3], [5, 2, 6, 2, 2]]","[[3, 3, 3, 3, 3], [3, 3, 1, 3, 3], [3, 1, 3, 1, 3], [3, 3, 1, 3, 3], [3, 3, 1, 1, 3]]","[3, 13, 7, 2, 5]",16,30,0,0.045,0.045,0.0,[],0,greedy,5,5,1485,0,134,134,1.645965534215778e+19,attentional-mouselab,34,504404,6
mouselab,False,[],"[[4, 6, 6, 5, 6], [5, 4, 5, 6, 5], [4, 6, 3, 6, 3], [0, 4, 6, 5, 2], [2, 3, 5, 4, 2]]","[[3, 3, 3, 3, 3], [3, 3, 3, 1, 3], [3, 1, 1, 1, 1], [3, 3, 3, 3, 3], [3, 1, 3, 3, 3]]","[2, 11, 2, 3, 12]",22,31,2,0.05,0.05,0.0,[],0,greedy,5,5,1046,0,151,151,8.281163398154922e+18,attentional-mouselab,35,506848,6
mouselab,False,[],"[[6, 6, 7, 9, 3], [5, 5, 5, 6, 4], [4, 5, 7, 8, 4], [5, 6, 5, 4, 7], [5, 7, 4, 3, 2]]","[[3, 3, 3, 1, 3], [3, 3, 3, 3, 3], [3, 3, 3, 1, 3], [3, 3, 3, 1, 3], [3, 1, 3, 1, 1]]","[1, 10, 8, 5, 6]",12,32,1,0.056,0.056,0.0,[],0,extreme,5,5,11132,0,168,168,1.9528109145242076e+18,attentional-mouselab,36,522895,6
mouselab,True,"[7, 14, 11, 20, 0, 14, 2, 18, 18, 17, 17, 17, 21, 21, 21, 2, 7, 7, 7, 16, 16, 16, 16, 16, 15, 15, 15, 15, 10, 10, 10, 5, 5, 5, 6, 6, 6, 6, 1, 1, 1, 1, 3, 3, 3, 3, 8, 8, 8, 8, 4, 4, 4, 4, 9, 9, 9, 9, 13, 13, 13, 13, 12, 12, 12, 22, 22, 22, 22, 23, 23, 23, 23, 23, 24, 24, 24, 24, 19, 19, 19, 19]","[[4, 3, 4, 3, 7], [2, 6, 8, 8, 6], [7, 4, 6, 5, 6], [7, 4, 3, 7, 4], [6, 4, 8, 8, 5]]","[[1, 3, 1, 3, 3], [3, 3, 3, 3, 3], [3, 1, 3, 3, 1], [3, 3, 3, 1, 3], [1, 3, 3, 3, 3]]","[5, 15, 5, 3, 2]",18,1,4,0.059,0.03799999999999999,0.021,"[14, 11, 20, 0, 2, 18, 17, 21, 7, 16, 15, 10, 5, 6, 1, 3, 8, 4, 9, 13, 12, 22, 23, 24, 19]",25,random,5,5,82726,63,177,114,6.984855784574668e+18,attentional-mouselab,4,139277,7
mouselab,True,[],"[[4, 1, 6, 5, 7], [5, 3, 3, 4, 3], [7, 1, 4, 3, 4], [4, 6, 9, 8, 3], [3, 6, 3, 9, 4]]","[[3, 3, 3, 3, 3], [1, 3, 3, 3, 3], [3, 3, 3, 3, 3], [3, 1, 3, 3, 1], [1, 1, 3, 1, 3]]","[5, 8, 2, 4, 11]",14,2,0,0.041,0.041,0.0,[],0,random,5,5,5984,0,123,123,8.277407663224225e+18,attentional-mouselab,5,146509,7
mouselab,False,[],"[[6, 4, 5, 3, 5], [4, 4, 5, 4, 8], [6, 7, 2, 4, 5], [4, 4, 5, 7, 5], [7, 5, 5, 6, 6]]","[[3, 3, 3, 3, 1], [3, 3, 1, 3, 3], [3, 3, 3, 3, 3], [3, 3, 3, 1, 3], [1, 1, 3, 3, 1]]","[1, 12, 1, 8, 8]",20,3,2,0.049,0.049,0.0,[],0,random,5,5,2715,0,147,147,7.868599255969667e+17,attentional-mouselab,7,155995,7
mouselab,False,[],"[[3, 3, 1, 7, 5], [3, 2, 5, 4, 4], [7, 3, 4, 7, 3], [6, 5, 6, 4, 3], [6, 8, 6, 7, 5]]","[[3, 1, 3, 1, 3], [1, 1, 3, 3, 3], [3, 3, 3, 1, 3], [3, 3, 3, 3, 3], [3, 3, 3, 1, 3]]","[2, 14, 3, 6, 5]",16,4,3,0.05,0.05,0.0,[],0,greedy,5,5,1100,0,150,150,1.6934650264103533e+19,attentional-mouselab,8,165318,7
mouselab,False,[],"[[5, 3, 5, 5, 8], [8, 5, 3, 7, 8], [6, 2, 7, 7, 4], [1, 5, 5, 8, 5], [4, 4, 9, 4, 6]]","[[3, 3, 3, 3, 3], [1, 3, 3, 3, 1], [3, 3, 3, 1, 3], [3, 3, 3, 1, 1], [3, 3, 1, 3, 3]]","[1, 12, 10, 4, 3]",20,5,0,0.059,0.059,0.0,[],0,greedy,5,5,1678,0,177,177,1.5206285415027952e+19,attentional-mouselab,9,168545,7
mouselab,False,[],"[[6, 9, 5, 4, 4], [4, 5, 4, 7, 7], [5, 6, 6, 8, 4], [5, 5, 5, 5, 4], [4, 7, 6, 3, 2]]","[[3, 1, 3, 3, 3], [3, 3, 3, 1, 3], [3, 1, 3, 3, 3], [3, 3, 3, 3, 3], [1, 1, 3, 1, 3]]","[6, 10, 10, 3, 1]",16,6,4,0.049,0.049,0.0,[],0,greedy,5,5,938,0,148,148,6.979336750473711e+18,attentional-mouselab,10,170819,7
mouselab,False,[],"[[2, 6, 6, 4, 7], [6, 5, 7, 5, 6], [2, 4, 5, 6, 5], [7, 7, 5, 6, 7], [6, 4, 9, 8, 0]]","[[3, 3, 1, 3, 3], [3, 3, 1, 3, 3], [3, 1, 1, 3, 3], [3, 3, 3, 1, 3], [3, 3, 1, 3, 3]]","[1, 6, 15, 2, 6]",18,7,1,0.045,0.045,0.0,[],0,greedy,5,5,1740,0,134,134,4.4404918724369556e+18,attentional-mouselab,11,174217,7
mouselab,False,[],"[[7, 4, 5, 5, 7], [5, 8, 5, 7, 5], [8, 2, 8, 3, 5], [5, 4, 3, 2, 5], [4, 2, 9, 4, 2]]","[[3, 3, 3, 3, 3], [3, 1, 3, 3, 3], [3, 1, 3, 3, 3], [3, 3, 3, 3, 3], [1, 1, 1, 3, 1]]","[4, 10, 2, 6, 8]",12,8,0,0.052,0.052,0.0,[],0,extreme,5,5,2963,0,156,156,2.9473135824691287e+18,attentional-mouselab,12,178559,7
mouselab,False,[],"[[5, 4, 7, 6, 6], [6, 5, 7, 4, 5], [5, 8, 5, 3, 4], [6, 4, 7, 4, 7], [3, 5, 7, 7, 5]]","[[1, 3, 3, 3, 3], [1, 3, 3, 3, 3], [3, 1, 1, 3, 3], [3, 3, 3, 3, 1], [3, 1, 3, 3, 3]]","[1, 5, 19, 1, 4]",26,9,1,0.068,0.068,0.0,[],0,random,5,5,1289,0,205,205,1.1705659543613182e+19,attentional-mouselab,13,182025,7
mouselab,False,[],"[[4, 7, 1, 6, 5], [8, 4, 5, 6, 6], [7, 7, 6, 6, 6], [2, 8, 7, 4, 4], [7, 7, 7, 5, 6]]","[[3, 1, 3, 3, 3], [1, 3, 3, 3, 3], [3, 1, 3, 3, 3], [3, 1, 3, 3, 3], [3, 1, 3, 1, 3]]","[7, 7, 9, 5, 2]",10,10,2,0.048,0.048,0.0,[],0,greedy,5,5,1469,0,145,145,1.6853308082521547e+19,attentional-mouselab,14,185370,7
mouselab,False,[],"[[5, 4, 4, 8, 3], [7, 5, 6, 6, 9], [6, 3, 4, 3, 5], [5, 5, 8, 7, 4], [4, 4, 3, 5, 6]]","[[3, 3, 3, 1, 3], [3, 3, 1, 3, 1], [3, 1, 3, 3, 3], [3, 3, 1, 1, 3], [3, 3, 3, 3, 3]]","[10, 4, 2, 1, 13]",22,11,1,0.041,0.041,0.0,[],0,greedy,5,5,1395,0,123,123,1.0248350623304819e+19,attentional-mouselab,15,187771,7
mouselab,False,[],"[[6, 6, 5, 8, 6], [4, 5, 3, 5, 6], [3, 6, 4, 4, 4], [5, 5, 6, 5, 5], [7, 8, 6, 3, 3]]","[[3, 3, 3, 1, 3], [3, 3, 3, 3, 3], [1, 1, 3, 3, 3], [3, 3, 3, 3, 3], [3, 1, 3, 1, 1]]","[3, 6, 3, 5, 13]",14,12,0,0.056,0.056,0.0,[],0,extreme,5,5,1207,0,167,167,1.6300700794013524e+18,attentional-mouselab,16,190071,7
mouselab,False,[],"[[5, 5, 7, 8, 5], [4, 4, 5, 3, 1], [3, 3, 9, 3, 6], [1, 4, 7, 6, 7], [6, 2, 6, 5, 7]]","[[3, 3, 3, 3, 3], [3, 3, 3, 3, 3], [3, 1, 3, 3, 1], [1, 3, 3, 1, 3], [3, 1, 3, 3, 1]]","[6, 4, 14, 2, 4]",16,13,2,0.075,0.075,0.0,[],0,random,5,5,895,0,226,226,1.5753772127699126e+18,attentional-mouselab,17,192555,7
mouselab,False,[],"[[5, 5, 8, 4, 4], [5, 6, 3, 8, 4], [6, 5, 5, 8, 5], [2, 4, 6, 5, 6], [5, 6, 4, 6, 5]]","[[1, 3, 3, 3, 3], [1, 3, 3, 3, 3], [1, 3, 3, 3, 3], [3, 1, 1, 3, 3], [3, 3, 3, 3, 1]]","[3, 5, 9, 3, 10]",14,14,3,0.066,0.066,0.0,[],0,random,5,5,994,0,199,199,9.728604777276236e+18,attentional-mouselab,18,194682,7
mouselab,False,[],"[[7, 7, 7, 7, 6], [8, 6, 5, 5, 5], [5, 3, 5, 6, 5], [8, 3, 7, 5, 0], [6, 5, 3, 4, 3]]","[[3, 3, 3, 1, 3], [1, 3, 1, 3, 3], [3, 3, 3, 3, 3], [1, 3, 3, 3, 1], [3, 1, 3, 3, 3]]","[7, 2, 8, 7, 6]",8,15,4,0.037,0.037,0.0,[],0,extreme,5,5,756,0,110,110,1.7728904569481515e+19,attentional-mouselab,19,197127,7
mouselab,False,[],"[[4, 4, 5, 3, 8], [2, 1, 5, 5, 6], [4, 7, 6, 9, 4], [6, 5, 7, 7, 4], [4, 4, 5, 7, 2]]","[[3, 1, 3, 3, 1], [1, 1, 3, 3, 3], [3, 3, 3, 1, 3], [3, 3, 3, 3, 3], [3, 3, 3, 3, 1]]","[2, 9, 2, 15, 2]",24,16,1,0.038,0.038,0.0,[],0,extreme,5,5,822,0,114,114,7.076351468939137e+18,attentional-mouselab,20,199189,7
mouselab,False,[],"[[7, 5, 2, 4, 3], [4, 6, 4, 8, 4], [3, 10, 5, 3, 5], [3, 5, 2, 8, 5], [5, 7, 5, 4, 2]]","[[3, 3, 1, 3, 3], [3, 3, 3, 1, 3], [3, 1, 3, 3, 1], [1, 3, 1, 3, 3], [3, 3, 3, 3, 3]]","[1, 9, 1, 8, 11]",20,17,0,0.042,0.042,0.0,[],0,extreme,5,5,994,0,125,125,1.1687110643060031e+19,attentional-mouselab,21,201475,7
mouselab,False,[],"[[6, 1, 6, 8, 6], [6, 5, 2, 5, 3], [5, 5, 6, 1, 2], [6, 7, 7, 6, 6], [3, 6, 4, 5, 4]]","[[3, 1, 3, 1, 3], [3, 3, 3, 3, 3], [3, 3, 3, 1, 3], [3, 3, 3, 1, 1], [3, 3, 3, 3, 1]]","[3, 5, 11, 9, 2]",16,18,2,0.055,0.055,0.0,[],0,extreme,5,5,810,0,165,165,1.7646001245902604e+19,attentional-mouselab,22,203423,7
mouselab,False,[],"[[7, 2, 4, 4, 4], [6, 5, 8, 5, 5], [6, 6, 3, 5, 3], [7, 4, 1, 3, 6], [7, 5, 6, 6, 3]]","[[3, 1, 3, 3, 3], [3, 1, 1, 3, 3], [3, 3, 3, 3, 3], [1, 3, 1, 1, 3], [3, 3, 3, 3, 3]]","[5, 16, 4, 3, 2]",20,19,3,0.047,0.047,0.0,[],0,extreme,5,5,1270,0,141,141,6.744968927774665e+18,attentional-mouselab,23,205895,7
mouselab,False,[],"[[4, 7, 2, 5, 7], [6, 0, 5, 5, 3], [4, 7, 9, 3, 5], [4, 5, 6, 5, 3], [6, 8, 3, 5, 5]]","[[3, 3, 3, 1, 3], [3, 1, 3, 3, 3], [1, 1, 1, 3, 3], [3, 3, 3, 3, 1], [3, 3, 3, 3, 3]]","[3, 14, 4, 2, 7]",18,20,2,0.048,0.048,0.0,[],0,random,5,5,919,0,145,145,1.4155017157821987e+19,attentional-mouselab,24,208669,7
mouselab,False,[],"[[3, 6, 7, 3, 4], [7, 4, 6, 6, 6], [7, 5, 5, 5, 4], [7, 4, 4, 6, 8], [6, 5, 3, 8, 4]]","[[3, 3, 3, 3, 3], [1, 3, 3, 3, 1], [1, 3, 3, 1, 3], [1, 3, 3, 3, 3], [3, 3, 1, 3, 3]]","[10, 3, 8, 5, 4]",12,21,1,0.051,0.051,0.0,[],0,greedy,5,5,848,0,152,152,1.2073779686829373e+19,attentional-mouselab,25,210741,7
mouselab,False,[],"[[7, 6, 4, 4, 1], [7, 3, 2, 8, 8], [4, 2, 1, 1, 7], [6, 8, 5, 1, 7], [5, 7, 7, 3, 3]]","[[3, 3, 3, 3, 1], [3, 3, 3, 3, 3], [3, 3, 1, 1, 3], [3, 3, 3, 1, 3], [1, 3, 3, 1, 3]]","[5, 4, 14, 2, 5]",16,22,0,0.052,0.052,0.0,[],0,extreme,5,5,856,0,156,156,8.452305014539187e+18,attentional-mouselab,26,212738,7
mouselab,False,[],"[[5, 6, 3, 3, 5], [2, 3, 7, 4, 6], [4, 6, 5, 8, 6], [2, 6, 5, 5, 3], [4, 6, 4, 6, 4]]","[[3, 3, 3, 1, 3], [3, 3, 1, 1, 3], [3, 3, 3, 3, 1], [3, 3, 3, 1, 3], [3, 1, 3, 3, 3]]","[3, 4, 18, 4, 1]",24,23,3,0.065,0.065,0.0,[],0,random,5,5,829,0,195,195,1.321024887539827e+19,attentional-mouselab,27,214821,7
mouselab,False,[],"[[4, 4, 4, 6, 6], [7, 7, 3, 8, 7], [5, 4, 5, 6, 6], [7, 4, 3, 7, 7], [5, 4, 6, 5, 3]]","[[3, 3, 3, 3, 3], [1, 3, 3, 1, 3], [1, 3, 3, 3, 3], [1, 3, 1, 3, 3], [3, 3, 3, 3, 1]]","[4, 8, 7, 4, 7]",8,24,3,0.064,0.064,0.0,[],0,extreme,5,5,1214,0,193,193,1.2224729846017565e+19,attentional-mouselab,28,217001,7
mouselab,False,[],"[[5, 3, 6, 6, 5], [4, 4, 6, 6, 2], [3, 2, 6, 4, 5], [1, 7, 2, 5, 5], [4, 4, 6, 5, 1]]","[[3, 3, 1, 3, 3], [3, 3, 1, 3, 3], [3, 3, 1, 3, 3], [3, 3, 1, 1, 3], [1, 3, 3, 3, 3]]","[3, 13, 3, 5, 6]",14,25,2,0.053,0.053,0.0,[],0,greedy,5,5,982,0,160,160,1.8342050109986437e+19,attentional-mouselab,29,219329,7
mouselab,False,[],"[[7, 8, 2, 3, 6], [4, 6, 5, 4, 6], [6, 4, 4, 3, 5], [2, 1, 4, 4, 4], [0, 6, 5, 8, 2]]","[[3, 1, 3, 3, 3], [3, 3, 3, 3, 1], [1, 1, 3, 3, 3], [3, 1, 3, 3, 3], [3, 3, 3, 1, 3]]","[7, 10, 6, 4, 3]",10,26,4,0.051,0.051,0.0,[],0,greedy,5,5,1120,0,154,154,1.829268787926259e+19,attentional-mouselab,30,221502,7
mouselab,False,[],"[[7, 7, 4, 4, 6], [3, 5, 7, 5, 2], [2, 4, 7, 6, 6], [6, 7, 5, 3, 5], [7, 5, 6, 7, 5]]","[[3, 3, 3, 3, 3], [1, 3, 1, 3, 1], [1, 3, 1, 3, 3], [3, 3, 3, 3, 1], [3, 3, 3, 3, 3]]","[6, 9, 1, 7, 7]",10,27,1,0.058,0.058,0.0,[],0,extreme,5,5,792,0,175,175,2.2262318040046743e+18,attentional-mouselab,31,223235,7
mouselab,False,[],"[[3, 4, 4, 4, 4], [5, 3, 3, 7, 5], [5, 4, 6, 3, 4], [4, 4, 7, 6, 9], [8, 2, 3, 4, 6]]","[[3, 3, 1, 3, 3], [1, 3, 3, 1, 3], [3, 3, 1, 3, 3], [3, 3, 3, 3, 1], [1, 3, 3, 3, 3]]","[14, 6, 3, 4, 3]",16,28,1,0.036,0.036,0.0,[],0,greedy,5,5,1007,0,108,108,1.80435734829298e+19,attentional-mouselab,32,225549,7
mouselab,False,[],"[[5, 2, 4, 4, 3], [5, 5, 7, 5, 5], [5, 10, 6, 4, 6], [5, 9, 1, 5, 5], [5, 3, 3, 7, 5]]","[[3, 3, 3, 3, 3], [1, 3, 1, 1, 1], [3, 3, 3, 3, 3], [3, 1, 3, 3, 3], [1, 3, 3, 3, 3]]","[1, 8, 3, 8, 10]",16,29,2,0.039,0.039,0.0,[],0,random,5,5,867,0,116,116,5.007248402510051e+18,attentional-mouselab,33,227797,7
mouselab,False,[],"[[5, 5, 4, 9, 5], [7, 3, 4, 6, 5], [5, 3, 9, 7, 5], [3, 1, 4, 8, 4], [5, 4, 5, 5, 4]]","[[1, 1, 3, 3, 1], [3, 3, 3, 1, 3], [3, 3, 3, 3, 3], [1, 3, 3, 3, 3], [3, 3, 3, 3, 1]]","[15, 1, 12, 1, 1]",30,30,0,0.05,0.05,0.0,[],0,random,5,5,1466,0,150,150,7.287405316727481e+18,attentional-mouselab,34,230205,7
mouselab,False,[],"[[6, 3, 8, 4, 4], [5, 4, 3, 6, 7], [4, 4, 4, 7, 5], [2, 7, 7, 6, 4], [4, 4, 3, 7, 4]]","[[3, 3, 3, 3, 3], [3, 3, 1, 3, 3], [3, 3, 3, 1, 3], [3, 1, 3, 3, 3], [1, 1, 3, 1, 3]]","[1, 4, 2, 7, 16]",22,31,1,0.047,0.047,0.0,[],0,random,5,5,837,0,140,140,3.70189013449287e+18,attentional-mouselab,35,232337,7
mouselab,False,[],"[[7, 6, 6, 5, 6], [7, 5, 5, 6, 5], [6, 6, 5, 4, 4], [4, 3, 6, 5, 5], [2, 5, 2, 6, 5]]","[[3, 3, 1, 3, 3], [1, 3, 3, 3, 3], [3, 1, 3, 3, 3], [3, 3, 3, 3, 1], [3, 1, 3, 3, 1]]","[2, 8, 5, 9, 6]",10,32,2,0.048,0.048,0.0,[],0,random,5,5,1231,0,143,143,2.4463455232519414e+18,attentional-mouselab,36,234843,7
mouselab,True,"[5, 21, 17, 3, 23, 19, 0, 0, 0, 10, 10, 10, 15, 15, 15, 20, 20, 20]","[[5, 3, 6, 6, 9], [5, 4, 5, 5, 7], [7, 6, 4, 8, 6], [5, 4, 2, 6, 6], [6, 6, 5, 7, 4]]","[[3, 3, 3, 1, 3], [1, 3, 3, 3, 3], [3, 3, 3, 3, 3], [3, 3, 1, 3, 1], [3, 1, 3, 1, 3]]","[3, 15, 7, 2, 3]",20,1,0,0.056,0.05,0.006,"[5, 21, 17, 3, 23, 19, 0, 10, 15, 20]",10,random,5,5,46498,18,167,149,1.4485256389887465e+18,attentional-mouselab,4,202509,8
mouselab,True,"[6, 5, 5, 5, 20, 15, 7, 7, 7, 8, 8, 8, 9, 9, 9, 9, 21, 22, 22, 22, 23, 23, 23, 24, 24, 24, 10, 10, 10]","[[7, 7, 4, 8, 8], [3, 2, 3, 5, 4], [4, 10, 6, 5, 4], [5, 2, 3, 9, 4], [6, 3, 2, 3, 3]]","[[3, 1, 3, 1, 3], [3, 1, 3, 3, 3], [3, 3, 3, 3, 3], [1, 3, 3, 3, 3], [1, 1, 3, 3, 3]]","[3, 11, 3, 5, 8]",14,2,0,0.046,0.03666666666666667,0.009333333333333334,"[6, 5, 20, 15, 7, 8, 9, 21, 22, 23, 24, 10]",12,random,5,5,37355,28,139,111,1.6231110758400162e+19,attentional-mouselab,5,245794,8
mouselab,False,"[15, 16, 18, 19, 23, 14, 10, 10, 10]","[[7, 6, 6, 8, 4], [8, 9, 4, 3, 1], [5, 7, 2, 6, 5], [9, 5, 5, 7, 1], [8, 2, 5, 3, 5]]","[[3, 3, 3, 3, 3], [3, 3, 3, 3, 3], [3, 3, 3, 3, 1], [1, 1, 3, 1, 1], [3, 3, 3, 1, 3]]","[7, 3, 7, 11, 2]",14,3,0,0.074,0.071,0.003,"[15, 16, 18, 19, 23, 14, 10]",7,random,5,5,26734,9,223,214,1.0531175009633925e+19,attentional-mouselab,7,281002,8
mouselab,False,"[16, 20, 1, 8, 14, 4, 18, 18, 18, 23, 23, 23]","[[6, 3, 5, 7, 4], [4, 5, 6, 8, 6], [4, 4, 3, 4, 3], [4, 2, 4, 5, 5], [4, 5, 4, 5, 4]]","[[3, 1, 3, 3, 1], [3, 3, 3, 1, 3], [3, 3, 3, 3, 1], [3, 1, 3, 3, 3], [1, 3, 3, 3, 3]]","[3, 5, 2, 12, 8]",16,4,3,0.056,0.052000000000000005,0.004,"[16, 20, 1, 8, 14, 4, 18, 23]",8,extreme,5,5,25560,12,169,157,1.1487141856461429e+19,attentional-mouselab,8,315412,8
mouselab,False,"[10, 15, 20, 6, 21, 9, 5, 5, 5]","[[2, 2, 6, 6, 5], [7, 9, 4, 3, 5], [6, 5, 3, 6, 6], [7, 7, 4, 3, 8], [7, 5, 5, 6, 2]]","[[3, 3, 3, 3, 3], [3, 1, 3, 3, 1], [1, 3, 3, 3, 3], [1, 3, 3, 3, 3], [1, 1, 3, 3, 3]]","[1, 12, 3, 7, 7]",16,5,0,0.067,0.064,0.003,"[10, 15, 20, 6, 21, 9, 5]",7,greedy,5,5,26207,9,202,193,3.888920501582866e+18,attentional-mouselab,9,345054,8
mouselab,False,"[13, 17, 22, 24, 6, 3, 11, 11, 11, 12, 12, 12, 16, 16, 16, 10, 10, 10, 14, 14, 14]","[[7, 4, 6, 5, 7], [4, 7, 5, 8, 1], [6, 5, 7, 3, 5], [5, 4, 3, 8, 6], [4, 1, 5, 5, 4]]","[[3, 3, 3, 1, 3], [3, 1, 3, 3, 3], [3, 3, 3, 1, 3], [3, 3, 1, 3, 3], [3, 3, 1, 3, 1]]","[4, 4, 11, 9, 2]",16,6,2,0.053,0.046,0.007,"[13, 17, 22, 24, 6, 3, 11, 12, 16, 10, 14]",11,random,5,5,48071,21,158,137,2.54573077878635e+18,attentional-mouselab,10,395957,8
mouselab,False,"[8, 13, 18, 23]","[[4, 1, 2, 6, 8], [5, 6, 5, 6, 5], [5, 5, 6, 6, 5], [6, 5, 4, 5, 5], [5, 3, 4, 6, 6]]","[[3, 3, 3, 3, 1], [3, 3, 3, 1, 3], [3, 3, 1, 1, 3], [3, 3, 3, 1, 3], [3, 3, 3, 1, 3]]","[4, 16, 3, 5, 2]",20,7,3,0.058,0.05666666666666667,0.0013333333333333333,"[8, 13, 18, 23]",4,greedy,5,5,10305,4,175,171,1.4381166194680142e+19,attentional-mouselab,11,409413,8
mouselab,False,"[8, 13, 18, 3, 3, 3, 1, 6, 6, 6]","[[0, 4, 6, 1, 6], [6, 7, 2, 7, 4], [5, 4, 0, 7, 7], [4, 5, 8, 8, 3], [6, 4, 5, 6, 3]]","[[3, 1, 3, 3, 3], [3, 3, 3, 1, 3], [3, 3, 3, 1, 3], [3, 3, 1, 1, 3], [1, 3, 3, 3, 3]]","[11, 15, 1, 2, 1]",28,8,1,0.056,0.05266666666666667,0.0033333333333333335,"[8, 13, 18, 3, 1, 6]",6,greedy,5,5,23663,10,167,157,1.6964746604929772e+19,attentional-mouselab,12,435546,8
mouselab,False,"[24, 10, 1, 3, 9, 20, 20, 20]","[[4, 1, 6, 4, 4], [7, 5, 7, 4, 1], [9, 5, 8, 6, 6], [2, 4, 4, 4, 5], [7, 7, 3, 6, 5]]","[[3, 1, 3, 1, 3], [3, 3, 3, 3, 1], [1, 3, 3, 3, 3], [1, 3, 3, 3, 3], [3, 3, 3, 3, 1]]","[6, 1, 10, 1, 12]",20,9,0,0.069,0.06633333333333334,0.0026666666666666666,"[24, 10, 1, 3, 9, 20]",6,extreme,5,5,18219,8,207,199,2.79505447118786e+17,attentional-mouselab,13,457172,8
mouselab,False,"[13, 9, 6, 11, 11, 11, 14, 14, 14, 8, 8, 8, 10, 10, 10]","[[8, 4, 4, 5, 4], [5, 5, 6, 3, 5], [10, 3, 8, 4, 2], [5, 6, 7, 5, 5], [10, 5, 2, 6, 3]]","[[3, 3, 3, 1, 1], [3, 1, 3, 3, 1], [3, 3, 3, 1, 3], [3, 3, 3, 3, 3], [1, 3, 3, 3, 3]]","[4, 8, 12, 3, 3]",16,10,0,0.079,0.074,0.005,"[13, 9, 6, 11, 14, 8, 10]",7,random,5,5,44146,15,237,222,7.428667766645371e+18,attentional-mouselab,14,504896,8
mouselab,False,"[10, 20, 24, 3, 1, 14, 14, 14]","[[5, 3, 6, 3, 4], [6, 5, 5, 5, 6], [5, 4, 5, 7, 5], [8, 6, 0, 3, 5], [4, 5, 7, 4, 9]]","[[3, 1, 3, 1, 3], [3, 3, 3, 1, 3], [1, 3, 3, 3, 3], [3, 3, 3, 3, 3], [1, 3, 3, 3, 1]]","[6, 4, 8, 6, 6]",4,11,4,0.057,0.05433333333333334,0.0026666666666666666,"[10, 20, 24, 3, 1, 14]",6,random,5,5,18619,8,172,164,1.3090947858393516e+19,attentional-mouselab,15,526560,8
mouselab,False,"[5, 0, 3, 22, 8, 8, 8, 9, 9, 9, 6, 6, 6, 7, 7, 7]","[[5, 5, 6, 8, 6], [5, 5, 4, 4, 4], [5, 6, 8, 5, 5], [4, 8, 5, 4, 4], [6, 4, 3, 5, 5]]","[[1, 3, 3, 1, 3], [1, 3, 3, 3, 3], [3, 3, 1, 3, 3], [3, 1, 3, 3, 3], [3, 3, 1, 3, 3]]","[8, 11, 4, 1, 6]",14,12,3,0.054,0.048666666666666664,0.005333333333333333,"[5, 0, 3, 22, 8, 9, 6, 7]",8,greedy,5,5,23265,16,162,146,1.286653556694672e+19,attentional-mouselab,16,551403,8
mouselab,False,"[2, 3, 17]","[[4, 8, 8, 5, 6], [4, 5, 4, 4, 7], [4, 4, 4, 6, 4], [5, 0, 8, 6, 5], [4, 6, 3, 7, 6]]","[[3, 3, 1, 1, 3], [3, 3, 3, 3, 1], [3, 3, 3, 3, 3], [3, 3, 1, 3, 1], [3, 3, 3, 1, 3]]","[16, 3, 3, 2, 6]",20,13,2,0.062,0.061,0.001,"[2, 3, 17]",3,greedy,5,5,11097,3,186,183,2.6549149135068657e+18,attentional-mouselab,17,565701,8
mouselab,False,"[23, 8, 13, 17, 22, 22, 22, 7, 7, 7]","[[3, 5, 6, 8, 4], [5, 3, 5, 5, 3], [5, 3, 5, 5, 5], [6, 4, 7, 6, 6], [5, 2, 4, 4, 7]]","[[3, 3, 3, 3, 3], [3, 3, 3, 1, 3], [1, 1, 3, 1, 3], [3, 3, 1, 3, 3], [3, 3, 3, 1, 3]]","[1, 11, 1, 7, 10]",20,14,2,0.052,0.048666666666666664,0.0033333333333333335,"[23, 8, 13, 17, 22, 7]",6,random,5,5,40484,10,155,145,1.7211660169478201e+19,attentional-mouselab,18,608213,8
mouselab,False,"[7, 8, 22, 22, 22, 23, 23, 23, 24]","[[3, 8, 3, 4, 6], [6, 4, 9, 3, 4], [4, 5, 9, 4, 4], [3, 8, 6, 4, 4], [5, 5, 3, 10, 4]]","[[3, 1, 3, 3, 3], [3, 3, 1, 1, 3], [3, 3, 1, 3, 3], [1, 3, 3, 3, 3], [3, 3, 3, 3, 1]]","[4, 9, 4, 6, 7]",8,15,3,0.051,0.047999999999999994,0.003,"[7, 8, 22, 23, 24]",5,greedy,5,5,20970,9,153,144,6.116134838382426e+18,attentional-mouselab,19,631150,8
mouselab,False,"[20, 22, 2, 2, 2, 0, 0, 0, 3, 3, 3, 4, 4, 4, 1, 1, 1, 21, 21, 21]","[[5, 6, 4, 4, 1], [5, 4, 6, 4, 7], [5, 4, 7, 4, 5], [5, 4, 4, 5, 4], [3, 2, 8, 4, 5]]","[[3, 3, 3, 3, 3], [3, 3, 3, 3, 1], [1, 1, 1, 3, 3], [3, 3, 3, 3, 3], [1, 3, 1, 3, 3]]","[15, 2, 3, 2, 8]",22,16,2,0.055,0.04833333333333333,0.006666666666666667,"[20, 22, 2, 0, 3, 4, 1, 21]",8,random,5,5,25586,20,165,145,1.7200853607555658e+19,attentional-mouselab,20,658493,8
mouselab,False,"[7, 18, 19, 17, 17, 17]","[[7, 5, 4, 8, 4], [2, 4, 9, 5, 5], [3, 3, 4, 3, 3], [7, 4, 3, 8, 3], [5, 5, 6, 4, 5]]","[[3, 1, 3, 1, 3], [3, 3, 1, 3, 3], [3, 3, 3, 3, 3], [3, 3, 3, 1, 1], [1, 3, 3, 3, 3]]","[4, 15, 3, 7, 1]",20,17,2,0.063,0.061,0.002,"[7, 18, 19, 17]",4,greedy,5,5,16450,6,190,184,3.178032148296726e+18,attentional-mouselab,21,676407,8
mouselab,False,"[0, 2, 5, 7, 7, 7, 17, 17, 17]","[[9, 7, 8, 7, 3], [0, 1, 7, 7, 7], [6, 4, 6, 2, 7], [8, 4, 7, 4, 6], [6, 3, 3, 5, 5]]","[[1, 3, 1, 3, 3], [1, 1, 3, 3, 3], [3, 3, 3, 3, 3], [3, 3, 3, 3, 3], [3, 1, 3, 1, 3]]","[17, 4, 3, 4, 2]",22,18,2,0.072,0.06899999999999999,0.003,"[0, 2, 5, 7, 17]",5,extreme,5,5,20457,9,216,207,2.9047723642555653e+18,attentional-mouselab,22,698995,8
