type,is_practice,click_values,payoff_matrix,cost_matrix,weights,weights_deviation,trial_num,selected_option,gross_earnings,net_earnings,click_cost,uncovered_values,experiment_type,trial_nudge,nudge_index,accepted_default,chose_nudge,og_baskets,actual_baskets,num_features,cost,reaction_time,trial_type,trial_index,time_elapsed,nudge_type,participant_id
mouselab,True,"[0, 3, 0, 3]","[[10, 8], [3, 4]]","[[0, 2], [2, 0]]","[29, 1]",28,1,0,0.098,0.09666666666666666,0.0013333333333333333,"[0, 3]",default,control,0,False,True,2,2,2,2,29761,implicit-mouselab,4,424634,default,0
mouselab,True,[],"[[2, 8, 5, 5, 4], [6, 5, 6, 2, 2], [4, 5, 5, 4, 5], [4, 4, 6, 2, 7], [1, 8, 4, 3, 4]]","[[2, 2, 2, 2, 2], [2, 2, 2, 2, 2], [2, 2, 2, 2, 2], [2, 2, 2, 2, 2], [2, 2, 2, 2, 2]]","[1, 6, 13, 8, 2]",18,2,4,0.048,0.048,0.0,[],default,control,1,False,False,5,5,5,2,17326,implicit-mouselab,5,448329,default,0
mouselab,False,[],"[[2, 5], [5, 7]]","[[2, 2], [2, 2]]","[16, 14]",2,3,1,0.059,0.059,0.0,[],default,default,1,True,True,2,2,2,2,11962,implicit-mouselab,7,468860,default,0
mouselab,False,[],"[[7, 4, 5, 5, 4], [7, 5, 6, 7, 2]]","[[2, 2, 2, 2, 2], [2, 2, 2, 2, 2]]","[20, 10]",10,4,0,0.07,0.07,0.0,[],default,default,0,True,True,5,5,2,2,7673,implicit-mouselab,8,479592,default,0
mouselab,False,[],"[[7, 3, 3, 4, 7], [4, 7, 4, 4, 6], [3, 5, 8, 5, 5], [6, 5, 7, 7, 5], [3, 4, 2, 5, 6]]","[[2, 2, 2, 2, 2], [2, 2, 2, 2, 2], [2, 2, 2, 2, 2], [2, 2, 2, 2, 2], [2, 2, 2, 2, 2]]","[8, 4, 1, 3, 14]",20,5,2,0.032,0.032,0.0,[],default,control,4,False,False,5,5,5,2,8486,implicit-mouselab,9,491912,default,0
mouselab,False,[],"[[4, 5, 4, 5, 7], [7, 3, 3, 0, 4], [3, 6, 7, 3, 6], [5, 6, 8, 6, 5], [5, 4, 4, 4, 6]]","[[2, 2, 2, 2, 2], [2, 2, 2, 2, 2], [2, 2, 2, 2, 2], [2, 2, 2, 2, 2], [2, 2, 2, 2, 2]]","[1, 14, 6, 6, 3]",16,6,4,0.049,0.049,0.0,[],default,default,4,True,True,5,5,5,2,3757,implicit-mouselab,10,498073,default,0
mouselab,False,"[0, 0, 9, 9, 2, 2]","[[7, 6, 5, 7, 6], [9, 4, 6, 3, 4]]","[[0, 2, 0, 2, 2], [2, 2, 2, 2, 0]]","[12, 18]",6,7,0,0.082,0.08,0.002,"[0, 9, 2]",default,control,0,False,True,5,5,2,2,15627,implicit-mouselab,11,516964,default,0
mouselab,False,[],"[[6, 8, 5, 5, 4], [5, 6, 9, 6, 7], [6, 6, 2, 5, 4], [6, 5, 6, 5, 2], [6, 5, 3, 5, 4]]","[[2, 2, 2, 2, 2], [2, 2, 2, 2, 2], [2, 2, 2, 2, 2], [2, 2, 2, 2, 2], [2, 2, 2, 2, 2]]","[7, 2, 6, 9, 6]",8,8,0,0.059,0.059,0.0,[],default,control,1,False,False,5,5,5,2,3352,implicit-mouselab,12,522100,default,0
mouselab,False,[],"[[5, 2, 6, 5, 8], [5, 5, 4, 4, 6], [7, 2, 5, 2, 5], [3, 5, 7, 8, 4], [5, 3, 6, 8, 5]]","[[2, 2, 2, 2, 2], [2, 2, 2, 2, 2], [2, 2, 2, 2, 2], [2, 2, 2, 2, 2], [2, 2, 2, 2, 2]]","[4, 5, 10, 2, 9]",14,9,2,0.054,0.054,0.0,[],default,default,2,True,True,5,5,5,2,2702,implicit-mouselab,13,526938,default,0
mouselab,False,"[6, 6, 1, 1, 5, 5, 2, 2]","[[6, 6], [5, 4], [4, 6], [4, 5], [2, 3]]","[[2, 0], [0, 2], [2, 0], [0, 2], [2, 2]]","[3, 8, 2, 12, 5]",16,10,1,0.046,0.043333333333333335,0.0026666666666666666,"[6, 1, 5, 2]",default,control,1,False,True,2,2,5,2,42483,implicit-mouselab,14,572419,default,0
mouselab,False,[],"[[4, 3], [6, 5]]","[[2, 2], [2, 2]]","[8, 22]",14,11,0,0.055,0.055,0.0,[],default,control,0,False,True,2,2,2,2,5231,implicit-mouselab,15,579513,default,0
mouselab,False,[],"[[6, 6, 3, 5, 7], [4, 5, 4, 3, 3], [2, 4, 7, 4, 4], [6, 7, 2, 8, 6], [6, 2, 5, 8, 4]]","[[2, 2, 2, 2, 2], [2, 2, 2, 2, 2], [2, 2, 2, 2, 2], [2, 2, 2, 2, 2], [2, 2, 2, 2, 2]]","[19, 1, 1, 7, 2]",28,12,2,0.031,0.031,0.0,[],default,control,3,False,False,5,5,5,2,2029,implicit-mouselab,16,584568,default,0
mouselab,False,[],"[[4, 6, 5, 5, 7], [7, 5, 7, 3, 3]]","[[2, 2, 2, 2, 2], [2, 2, 2, 2, 2]]","[26, 4]",22,13,4,0.065,0.065,0.0,[],default,control,2,False,False,5,5,2,2,1891,implicit-mouselab,17,588541,default,0
mouselab,False,[],"[[6, 4], [6, 6], [8, 7], [6, 6], [5, 7]]","[[2, 2], [2, 2], [2, 2], [2, 2], [2, 2]]","[7, 3, 10, 8, 2]",14,14,0,0.066,0.066,0.0,[],default,default,0,True,True,2,2,5,2,1784,implicit-mouselab,18,592508,default,0
mouselab,False,[],"[[5, 4], [8, 8], [5, 4], [6, 5], [6, 4]]","[[2, 2], [2, 2], [2, 2], [2, 2], [2, 2]]","[2, 2, 15, 4, 7]",20,15,0,0.056,0.056,0.0,[],default,default,0,True,True,2,2,5,2,4524,implicit-mouselab,19,599838,default,0
mouselab,False,[],"[[7, 3], [1, 5], [2, 3], [5, 6], [5, 5]]","[[2, 2], [2, 2], [2, 2], [2, 2], [2, 2]]","[1, 11, 2, 9, 7]",18,16,1,0.051,0.051,0.0,[],default,control,1,False,True,2,2,5,2,3520,implicit-mouselab,20,605382,default,0
mouselab,False,[],"[[7, 9], [4, 4]]","[[2, 2], [2, 2]]","[21, 9]",12,17,0,0.061,0.061,0.0,[],default,control,1,False,False,2,2,2,2,3167,implicit-mouselab,21,611234,default,0
mouselab,False,[],"[[5, 7], [6, 5]]","[[2, 2], [2, 2]]","[16, 14]",2,18,1,0.061,0.061,0.0,[],default,control,1,False,True,2,2,2,2,2054,implicit-mouselab,22,615447,default,0
mouselab,False,[],"[[2, 4], [6, 2], [7, 6], [8, 8], [3, 8]]","[[2, 2], [2, 2], [2, 2], [2, 2], [2, 2]]","[20, 2, 3, 4, 1]",28,19,0,0.036,0.036,0.0,[],default,default,1,False,False,2,2,5,2,3705,implicit-mouselab,23,622609,default,0
mouselab,False,[],"[[6, 7, 6, 8, 4], [5, 8, 7, 7, 6]]","[[2, 2, 2, 2, 2], [2, 2, 2, 2, 2]]","[28, 2]",26,20,1,0.071,0.071,0.0,[],default,default,1,True,True,5,5,2,2,1575,implicit-mouselab,24,625757,default,0
mouselab,False,[],"[[4, 5, 5, 5, 3], [5, 5, 6, 4, 4]]","[[2, 2, 2, 2, 2], [2, 2, 2, 2, 2]]","[3, 27]",24,21,2,0.059,0.059,0.0,[],default,default,2,True,True,5,5,2,2,2476,implicit-mouselab,25,630459,default,0
mouselab,False,[],"[[3, 6, 6, 8, 7], [5, 4, 10, 4, 6], [4, 5, 5, 5, 3], [4, 4, 6, 6, 5], [5, 6, 4, 6, 5]]","[[2, 2, 2, 2, 2], [2, 2, 2, 2, 2], [2, 2, 2, 2, 2], [2, 2, 2, 2, 2], [2, 2, 2, 2, 2]]","[3, 3, 15, 8, 1]",22,22,2,0.058,0.058,0.0,[],default,control,2,False,True,5,5,5,2,2673,implicit-mouselab,26,636060,default,0
mouselab,False,[],"[[5, 8], [4, 8], [5, 8], [8, 1], [3, 3]]","[[2, 2], [2, 2], [2, 2], [2, 2], [2, 2]]","[5, 2, 7, 9, 7]",10,23,0,0.054,0.054,0.0,[],default,control,1,False,False,2,2,5,2,2895,implicit-mouselab,27,641147,default,0
mouselab,False,[],"[[6, 6], [3, 5]]","[[2, 2], [2, 2]]","[24, 6]",18,24,1,0.058,0.058,0.0,[],default,default,1,True,True,2,2,2,2,2288,implicit-mouselab,28,644856,default,0
mouselab,False,[],"[[5, 6], [7, 5], [5, 4], [9, 5], [3, 8]]","[[2, 2], [2, 2], [2, 2], [2, 2], [2, 2]]","[1, 2, 8, 12, 7]",18,25,0,0.063,0.063,0.0,[],default,default,0,True,True,2,2,5,2,1415,implicit-mouselab,29,648264,default,0
mouselab,False,[],"[[7, 9], [5, 8]]","[[2, 2], [2, 2]]","[6, 24]",18,26,1,0.082,0.082,0.0,[],default,default,1,True,True,2,2,2,2,3434,implicit-mouselab,30,654327,default,0
mouselab,False,[],"[[3, 4, 2, 5, 4], [1, 7, 7, 6, 4]]","[[2, 2, 2, 2, 2], [2, 2, 2, 2, 2]]","[8, 22]",14,27,1,0.062,0.062,0.0,[],default,control,1,False,True,5,5,2,2,1878,implicit-mouselab,31,657747,default,0
mouselab,False,[],"[[5, 5, 5, 3, 7], [3, 4, 6, 8, 5], [4, 8, 2, 6, 5], [3, 7, 6, 6, 3], [6, 5, 7, 4, 5]]","[[2, 2, 2, 2, 2], [2, 2, 2, 2, 2], [2, 2, 2, 2, 2], [2, 2, 2, 2, 2], [2, 2, 2, 2, 2]]","[1, 9, 15, 2, 3]",24,28,1,0.063,0.063,0.0,[],default,default,1,True,True,5,5,5,2,2198,implicit-mouselab,32,662587,default,0
mouselab,False,[],"[[8, 6, 5, 4, 6], [5, 9, 4, 6, 6]]","[[2, 2, 2, 2, 2], [2, 2, 2, 2, 2]]","[12, 18]",6,29,3,0.052,0.052,0.0,[],default,control,1,False,False,5,5,2,2,1940,implicit-mouselab,33,665911,default,0
mouselab,False,[],"[[3, 8], [7, 5]]","[[2, 2], [2, 2]]","[7, 23]",16,30,1,0.057,0.057,0.0,[],default,default,1,True,True,2,2,2,2,2015,implicit-mouselab,34,669291,default,0
mouselab,False,[],"[[2, 6, 6, 5, 4], [7, 5, 3, 4, 9]]","[[2, 2, 2, 2, 2], [2, 2, 2, 2, 2]]","[18, 12]",6,31,4,0.06,0.06,0.0,[],default,default,4,True,True,5,5,2,2,3042,implicit-mouselab,35,674395,default,0
mouselab,False,[],"[[4, 4], [5, 6]]","[[2, 2], [2, 2]]","[14, 16]",2,32,1,0.051,0.051,0.0,[],default,control,1,False,True,2,2,2,2,1542,implicit-mouselab,36,677767,default,0
mouselab,False,[],"[[5, 2, 6, 8, 5], [5, 3, 6, 7, 8], [8, 6, 6, 3, 3], [1, 6, 9, 4, 3], [1, 3, 6, 5, 3]]","[[2, 2, 2, 2, 2], [2, 2, 2, 2, 2], [2, 2, 2, 2, 2], [2, 2, 2, 2, 2], [2, 2, 2, 2, 2]]","[1, 7, 7, 5, 10]",12,33,2,0.065,0.065,0.0,[],default,default,2,True,True,5,5,5,2,1656,implicit-mouselab,37,681021,default,0
mouselab,False,[],"[[4, 8], [7, 5], [5, 3], [7, 3], [7, 6]]","[[2, 2], [2, 2], [2, 2], [2, 2], [2, 2]]","[7, 3, 7, 3, 10]",12,34,1,0.054,0.054,0.0,[],default,control,0,False,False,2,2,5,2,3055,implicit-mouselab,38,685572,default,0
mouselab,True,"[16, 16, 8, 8, 18, 18]","[[4, 2, 7, 6, 6], [4, 4, 5, 9, 6], [3, 6, 4, 6, 6], [7, 6, 6, 8, 6], [5, 6, 8, 7, 5]]","[[2, 2, 2, 2, 2], [2, 2, 2, 0, 2], [2, 2, 2, 2, 2], [2, 0, 2, 0, 2], [2, 2, 2, 2, 2]]","[2, 4, 6, 14, 4]",16,1,3,0.075,0.073,0.002,"[16, 8, 18]",default,control,3,False,True,5,5,5,2,34966,implicit-mouselab,4,399068,default,1
mouselab,True,"[2, 2]","[[4, 2], [7, 3]]","[[2, 2], [0, 2]]","[5, 25]",20,2,0,0.065,0.06433333333333334,0.0006666666666666666,[2],default,control,0,False,True,2,2,2,2,8188,implicit-mouselab,5,410377,default,1
mouselab,False,"[4, 4, 7, 7]","[[5, 5], [4, 6], [4, 6], [8, 2], [7, 2]]","[[2, 2], [2, 2], [0, 2], [2, 0], [2, 2]]","[4, 1, 11, 11, 3]",20,3,0,0.059,0.057666666666666665,0.0013333333333333333,"[4, 7]",default,control,0,False,True,2,2,5,2,6400,implicit-mouselab,7,419695,default,1
mouselab,False,"[0, 0, 2, 2]","[[6, 7, 7, 3, 4], [3, 6, 4, 3, 6], [9, 7, 7, 4, 5], [5, 6, 3, 5, 6], [3, 5, 4, 4, 5]]","[[0, 2, 0, 2, 2], [2, 2, 2, 2, 2], [2, 2, 2, 2, 2], [2, 2, 2, 2, 2], [2, 2, 2, 2, 2]]","[14, 3, 3, 5, 5]",16,4,2,0.055,0.05366666666666667,0.0013333333333333333,"[0, 2]",default,control,1,False,False,5,5,5,2,8118,implicit-mouselab,8,429160,default,1
mouselab,False,[],"[[6, 4, 5, 3, 4], [6, 2, 6, 6, 4], [4, 1, 3, 6, 9], [4, 7, 4, 5, 4], [3, 6, 5, 6, 2]]","[[2, 2, 2, 2, 2], [2, 2, 2, 2, 2], [2, 2, 2, 2, 2], [2, 2, 2, 2, 2], [2, 2, 2, 2, 2]]","[3, 4, 8, 5, 10]",12,5,3,0.055,0.055,0.0,[],default,default,3,True,True,5,5,5,2,4845,implicit-mouselab,9,435664,default,1
mouselab,False,[],"[[7, 4], [7, 3], [4, 4], [5, 4], [6, 4]]","[[2, 2], [2, 2], [2, 2], [2, 2], [2, 2]]","[1, 22, 3, 2, 2]",32,6,0,0.065,0.065,0.0,[],default,default,0,True,True,2,2,5,2,11403,implicit-mouselab,10,448342,default,1
mouselab,False,"[6, 6, 8, 8]","[[8, 3, 4, 4, 4], [4, 1, 4, 6, 4]]","[[2, 2, 2, 2, 2], [2, 0, 2, 0, 2]]","[5, 25]",20,7,3,0.057,0.05566666666666667,0.0013333333333333333,"[6, 8]",default,default,0,False,False,5,5,2,2,9851,implicit-mouselab,11,459497,default,1
mouselab,False,"[2, 2, 3, 3]","[[6, 6], [5, 5], [5, 4], [6, 6], [4, 7]]","[[2, 2], [0, 0], [2, 2], [2, 2], [2, 2]]","[6, 17, 3, 2, 2]",22,8,0,0.052,0.050666666666666665,0.0013333333333333333,"[2, 3]",default,default,1,False,False,2,2,5,2,8713,implicit-mouselab,12,471869,default,1
mouselab,False,[],"[[5, 5, 3, 4, 5], [3, 4, 7, 4, 5]]","[[2, 2, 2, 2, 2], [2, 2, 2, 2, 2]]","[1, 29]",28,9,4,0.05,0.05,0.0,[],default,control,4,False,True,5,5,2,2,6376,implicit-mouselab,13,479667,default,1
mouselab,False,[],"[[5, 7, 2, 6, 2], [3, 6, 5, 5, 2]]","[[2, 2, 2, 2, 2], [2, 2, 2, 2, 2]]","[14, 16]",2,10,1,0.065,0.065,0.0,[],default,default,1,True,True,5,5,2,2,3330,implicit-mouselab,14,485235,default,1
mouselab,False,"[4, 4, 5, 5]","[[5, 4], [5, 4], [6, 8], [6, 6], [6, 7]]","[[2, 2], [2, 2], [0, 0], [2, 2], [2, 2]]","[5, 3, 17, 3, 2]",22,11,1,0.067,0.06566666666666666,0.0013333333333333333,"[4, 5]",default,control,1,False,True,2,2,5,2,4710,implicit-mouselab,15,492395,default,1
mouselab,False,"[1, 1, 0, 0]","[[5, 6], [5, 7], [4, 4], [5, 5], [1, 3]]","[[0, 0], [2, 2], [2, 2], [2, 2], [2, 2]]","[12, 5, 6, 6, 1]",12,12,1,0.055,0.05366666666666667,0.0013333333333333333,"[1, 0]",default,control,1,False,True,2,2,5,2,4821,implicit-mouselab,16,498675,default,1
mouselab,False,[],"[[2, 8, 5, 4, 5], [5, 4, 4, 7, 1], [4, 6, 7, 6, 6], [7, 6, 6, 7, 4], [4, 6, 8, 2, 4]]","[[2, 2, 2, 2, 2], [2, 2, 2, 2, 2], [2, 2, 2, 2, 2], [2, 2, 2, 2, 2], [2, 2, 2, 2, 2]]","[1, 1, 12, 5, 11]",22,13,2,0.07,0.07,0.0,[],default,default,2,True,True,5,5,5,2,2578,implicit-mouselab,17,503457,default,1
mouselab,False,[],"[[6, 5], [4, 5]]","[[2, 2], [2, 2]]","[11, 19]",8,14,0,0.047,0.047,0.0,[],default,default,0,True,True,2,2,2,2,5385,implicit-mouselab,18,510106,default,1
mouselab,False,"[20, 20, 22, 22]","[[4, 3, 8, 5, 3], [5, 6, 8, 5, 5], [6, 7, 6, 5, 4], [6, 5, 5, 6, 4], [3, 6, 5, 7, 6]]","[[2, 2, 2, 2, 2], [2, 2, 2, 2, 2], [2, 2, 2, 2, 2], [2, 2, 2, 2, 2], [0, 2, 0, 2, 2]]","[7, 7, 5, 3, 8]",8,15,3,0.056,0.05466666666666667,0.0013333333333333333,"[20, 22]",default,control,2,False,False,5,5,5,2,6286,implicit-mouselab,19,518490,default,1
mouselab,False,"[0, 0, 4, 4, 2, 2]","[[6, 4, 7, 5, 6], [1, 3, 5, 6, 2], [6, 4, 4, 6, 3], [7, 6, 4, 6, 7], [4, 8, 5, 4, 3]]","[[0, 2, 0, 2, 0], [2, 2, 2, 2, 2], [2, 2, 2, 2, 2], [2, 2, 2, 2, 2], [2, 2, 2, 2, 2]]","[11, 5, 9, 2, 3]",16,16,2,0.054,0.052,0.002,"[0, 4, 2]",default,control,3,False,False,5,5,5,2,7409,implicit-mouselab,20,527165,default,1
mouselab,False,[],"[[6, 6], [3, 5]]","[[2, 2], [2, 2]]","[18, 12]",6,17,1,0.056,0.056,0.0,[],default,default,1,True,True,2,2,2,2,2304,implicit-mouselab,21,531531,default,1
mouselab,False,[],"[[5, 5], [3, 5]]","[[2, 2], [2, 2]]","[8, 22]",14,18,1,0.05,0.05,0.0,[],default,default,1,True,True,2,2,2,2,2289,implicit-mouselab,22,535185,default,1
mouselab,False,"[0, 0]","[[7, 5], [6, 7]]","[[0, 2], [2, 2]]","[27, 3]",24,19,0,0.069,0.06833333333333334,0.0006666666666666666,[0],default,control,0,False,True,2,2,2,2,3636,implicit-mouselab,23,539920,default,1
mouselab,False,[],"[[4, 5, 5, 4, 7], [3, 5, 3, 6, 5]]","[[2, 2, 2, 2, 2], [2, 2, 2, 2, 2]]","[17, 13]",4,20,4,0.061,0.061,0.0,[],default,default,4,True,True,5,5,2,2,3484,implicit-mouselab,24,544920,default,1
mouselab,False,[],"[[4, 8], [6, 6]]","[[2, 2], [2, 2]]","[23, 7]",16,21,1,0.075,0.075,0.0,[],default,default,1,True,True,2,2,2,2,2342,implicit-mouselab,25,548852,default,1
mouselab,False,"[20, 20, 22, 22]","[[5, 4, 7, 6, 2], [1, 5, 5, 8, 2], [4, 5, 4, 4, 7], [1, 5, 6, 6, 7], [3, 3, 9, 5, 5]]","[[2, 2, 2, 2, 2], [2, 2, 2, 2, 2], [2, 2, 2, 2, 2], [2, 2, 2, 2, 2], [0, 2, 0, 2, 2]]","[1, 4, 3, 7, 15]",20,22,2,0.072,0.07066666666666666,0.0013333333333333333,"[20, 22]",default,default,2,False,True,5,5,5,2,5867,implicit-mouselab,26,556387,default,1
mouselab,False,"[0, 0, 2, 2, 3, 3]","[[6, 3, 5, 8, 10], [2, 5, 4, 5, 6], [5, 4, 2, 4, 9], [5, 7, 7, 10, 5], [4, 2, 6, 2, 4]]","[[0, 2, 0, 0, 2], [2, 2, 2, 2, 2], [2, 2, 2, 2, 2], [2, 2, 2, 2, 2], [2, 2, 2, 2, 2]]","[16, 7, 2, 2, 3]",22,23,3,0.066,0.064,0.002,"[0, 2, 3]",default,control,4,False,False,5,5,5,2,6238,implicit-mouselab,27,564070,default,1
mouselab,False,[],"[[7, 8, 6, 3, 8], [2, 3, 4, 6, 3]]","[[2, 2, 2, 2, 2], [2, 2, 2, 2, 2]]","[11, 19]",8,24,2,0.047,0.047,0.0,[],default,control,4,False,False,5,5,2,2,2777,implicit-mouselab,28,568717,default,1
mouselab,False,[],"[[4, 3, 7, 9, 6], [4, 4, 5, 5, 3], [4, 4, 4, 4, 7], [3, 4, 5, 6, 4], [6, 4, 1, 2, 5]]","[[2, 2, 2, 2, 2], [2, 2, 2, 2, 2], [2, 2, 2, 2, 2], [2, 2, 2, 2, 2], [2, 2, 2, 2, 2]]","[8, 2, 12, 7, 1]",18,25,3,0.058,0.058,0.0,[],default,default,3,True,True,5,5,5,2,1935,implicit-mouselab,29,572191,default,1
mouselab,False,[],"[[7, 2, 7, 2, 2], [5, 6, 6, 6, 8]]","[[2, 2, 2, 2, 2], [2, 2, 2, 2, 2]]","[14, 16]",2,26,1,0.041,0.041,0.0,[],default,control,2,False,False,5,5,2,2,2788,implicit-mouselab,30,576408,default,1
mouselab,False,"[0, 0, 1, 1]","[[1, 4], [2, 6]]","[[0, 0], [2, 2]]","[27, 3]",24,27,1,0.042,0.04066666666666667,0.0013333333333333333,"[0, 1]",default,control,1,False,True,2,2,2,2,3811,implicit-mouselab,31,581690,default,1
mouselab,False,"[0, 0, 1, 1]","[[5, 2], [7, 5]]","[[0, 0], [2, 2]]","[29, 1]",28,28,0,0.051,0.049666666666666665,0.0013333333333333333,"[0, 1]",default,control,0,False,True,2,2,2,2,3883,implicit-mouselab,32,586982,default,1
mouselab,False,[],"[[5, 6], [5, 5], [5, 6], [4, 1], [4, 4]]","[[2, 2], [2, 2], [2, 2], [2, 2], [2, 2]]","[3, 5, 9, 8, 5]",10,29,1,0.042,0.042,0.0,[],default,control,0,False,False,2,2,5,2,2757,implicit-mouselab,33,591404,default,1
mouselab,False,[],"[[4, 8, 5, 5, 6], [6, 5, 6, 4, 2]]","[[2, 2, 2, 2, 2], [2, 2, 2, 2, 2]]","[16, 14]",2,30,0,0.049,0.049,0.0,[],default,control,1,False,False,5,5,2,2,3262,implicit-mouselab,34,595987,default,1
mouselab,False,[],"[[5, 4], [3, 3], [8, 3], [5, 3], [3, 0]]","[[2, 2], [2, 2], [2, 2], [2, 2], [2, 2]]","[11, 4, 7, 4, 4]",12,31,0,0.052,0.052,0.0,[],default,default,0,True,True,2,2,5,2,2650,implicit-mouselab,35,601839,default,1
mouselab,False,"[3, 3, 2, 2]","[[4, 5], [5, 5], [7, 5], [8, 6], [8, 3]]","[[2, 2], [0, 0], [2, 2], [2, 2], [2, 2]]","[2, 15, 4, 4, 5]",18,32,1,0.048,0.04666666666666667,0.0013333333333333333,"[3, 2]",default,default,0,False,False,2,2,5,2,5370,implicit-mouselab,36,608274,default,1
mouselab,False,[],"[[3, 5, 6, 4, 6], [6, 4, 3, 4, 5]]","[[2, 2, 2, 2, 2], [2, 2, 2, 2, 2]]","[18, 12]",6,33,4,0.056,0.056,0.0,[],default,default,4,True,True,5,5,2,2,2013,implicit-mouselab,37,611405,default,1
mouselab,False,"[0, 0]","[[5, 6], [5, 5]]","[[0, 2], [2, 2]]","[26, 4]",22,34,0,0.05,0.04933333333333333,0.0006666666666666666,[0],default,control,1,False,False,2,2,2,2,4548,implicit-mouselab,38,617292,default,1
mouselab,True,"[2, 2, 6, 6, 7, 7, 3, 3]","[[5, 6], [7, 5], [5, 4], [4, 5], [4, 3]]","[[2, 2], [0, 0], [2, 2], [0, 0], [2, 2]]","[4, 10, 1, 14, 1]",24,1,0,0.052,0.04933333333333333,0.0026666666666666666,"[2, 6, 7, 3]",default,control,0,False,True,2,2,5,2,23670,implicit-mouselab,4,262258,default,5
mouselab,True,"[8, 8, 1, 1, 5, 5, 9, 9]","[[5, 3, 3, 6, 4], [4, 4, 7, 4, 6]]","[[2, 0, 2, 2, 2], [0, 2, 2, 0, 0]]","[9, 21]",12,2,4,0.054,0.051333333333333335,0.0026666666666666666,"[8, 1, 5, 9]",default,control,3,False,False,5,5,2,2,18550,implicit-mouselab,5,282113,default,5
mouselab,False,"[0, 0, 1, 1]","[[5, 7], [2, 7]]","[[0, 0], [2, 2]]","[18, 12]",6,3,1,0.07,0.06866666666666667,0.0013333333333333333,"[0, 1]",default,control,1,False,True,2,2,2,2,7752,implicit-mouselab,7,293858,default,5
mouselab,False,"[5, 5, 6, 6, 8, 8, 9, 9]","[[4, 5, 4, 6, 5], [6, 4, 7, 4, 4], [3, 4, 4, 4, 4], [6, 4, 6, 1, 4], [7, 3, 4, 4, 5]]","[[2, 2, 2, 2, 2], [0, 0, 2, 0, 0], [2, 2, 2, 2, 2], [2, 2, 2, 2, 2], [2, 2, 2, 2, 2]]","[2, 14, 9, 2, 3]",22,4,0,0.051,0.04833333333333333,0.0026666666666666666,"[5, 6, 8, 9]",default,control,0,False,True,5,5,5,2,14822,implicit-mouselab,8,311097,default,5
mouselab,False,"[5, 5, 6, 6, 8, 8, 9, 9, 7, 7]","[[3, 5, 7, 9, 3], [7, 4, 3, 5, 6], [4, 6, 5, 4, 5], [5, 7, 5, 5, 6], [4, 4, 6, 6, 6]]","[[2, 2, 2, 2, 2], [0, 0, 0, 0, 0], [2, 2, 2, 2, 2], [2, 2, 2, 2, 2], [2, 2, 2, 2, 2]]","[7, 11, 2, 3, 7]",14,5,0,0.05,0.04666666666666667,0.0033333333333333335,"[5, 6, 8, 9, 7]",default,default,3,False,False,5,5,5,2,14024,implicit-mouselab,9,328594,default,5
mouselab,False,[],"[[4, 1], [6, 4]]","[[2, 2], [2, 2]]","[20, 10]",10,6,0,0.047,0.047,0.0,[],default,default,0,True,True,2,2,2,2,3639,implicit-mouselab,10,335953,default,5
mouselab,False,"[15, 15, 17, 17, 19, 19, 16, 16, 22, 22, 20, 20]","[[5, 3, 3, 6, 7], [3, 5, 4, 5, 4], [4, 3, 6, 3, 5], [5, 2, 5, 6, 3], [8, 2, 4, 8, 5]]","[[2, 2, 2, 2, 2], [2, 2, 2, 2, 2], [2, 2, 2, 2, 2], [0, 0, 0, 2, 0], [0, 2, 0, 2, 2]]","[1, 3, 1, 16, 9]",26,7,0,0.057,0.053000000000000005,0.004,"[15, 17, 19, 16, 22, 20]",default,control,3,False,False,5,5,5,2,13255,implicit-mouselab,11,351706,default,5
mouselab,False,"[2, 2, 3, 3]","[[6, 5], [2, 4]]","[[2, 2], [0, 0]]","[3, 27]",24,8,1,0.041,0.03966666666666667,0.0013333333333333333,"[2, 3]",default,default,1,False,True,2,2,2,2,5887,implicit-mouselab,12,358843,default,5
mouselab,False,"[8, 8, 9, 9]","[[6, 3], [6, 2], [5, 4], [6, 6], [7, 4]]","[[2, 2], [2, 2], [2, 2], [2, 2], [0, 0]]","[3, 5, 5, 7, 10]",10,9,0,0.062,0.06066666666666667,0.0013333333333333333,"[8, 9]",default,control,0,False,True,2,2,5,2,5629,implicit-mouselab,13,366121,default,5
mouselab,False,"[5, 5, 8, 8, 7, 7]","[[6, 6, 3, 7, 6], [4, 3, 7, 6, 4]]","[[2, 2, 2, 2, 2], [0, 2, 0, 0, 2]]","[5, 25]",20,10,2,0.063,0.061,0.002,"[5, 8, 7]",default,control,3,False,False,5,5,2,2,6679,implicit-mouselab,14,373698,default,5
mouselab,False,[],"[[5, 7], [4, 7], [5, 7], [3, 6], [2, 3]]","[[2, 2], [2, 2], [2, 2], [2, 2], [2, 2]]","[5, 7, 6, 5, 7]",4,11,1,0.059,0.059,0.0,[],default,default,1,True,True,2,2,5,2,5615,implicit-mouselab,15,381097,default,5
mouselab,False,"[0, 0, 1, 1]","[[7, 5], [6, 7]]","[[0, 0], [2, 2]]","[21, 9]",12,12,0,0.067,0.06566666666666666,0.0013333333333333333,"[0, 1]",default,control,0,False,True,2,2,2,2,4447,implicit-mouselab,16,386434,default,5
mouselab,False,"[5, 5, 7, 7, 8, 8, 6, 6]","[[6, 7, 7, 6, 7], [5, 5, 7, 2, 6]]","[[2, 2, 2, 2, 2], [0, 0, 0, 0, 2]]","[6, 24]",18,13,2,0.07,0.06733333333333334,0.0026666666666666666,"[5, 7, 8, 6]",default,default,2,False,True,5,5,2,2,9030,implicit-mouselab,17,396297,default,5
mouselab,False,"[16, 16, 17, 17, 19, 19, 15, 15, 18, 18]","[[6, 5, 5, 5, 5], [5, 7, 8, 5, 5], [5, 4, 5, 6, 5], [4, 4, 6, 7, 5], [6, 6, 5, 5, 5]]","[[2, 2, 2, 2, 2], [2, 2, 2, 2, 2], [2, 2, 2, 2, 2], [0, 0, 0, 0, 0], [2, 2, 2, 2, 2]]","[1, 8, 4, 13, 4]",18,14,3,0.06,0.056666666666666664,0.0033333333333333335,"[16, 17, 19, 15, 18]",default,default,2,False,False,5,5,5,2,13911,implicit-mouselab,18,411697,default,5
mouselab,False,[],"[[5, 6], [7, 4], [6, 7], [4, 4], [4, 2]]","[[2, 2], [2, 2], [2, 2], [2, 2], [2, 2]]","[5, 8, 4, 2, 11]",14,15,0,0.052,0.052,0.0,[],default,default,0,True,True,2,2,5,2,4758,implicit-mouselab,19,417936,default,5
mouselab,False,"[2, 2, 3, 3]","[[5, 7], [2, 8]]","[[2, 2], [0, 0]]","[2, 28]",26,16,1,0.079,0.07766666666666666,0.0013333333333333333,"[2, 3]",default,control,1,False,True,2,2,2,2,3312,implicit-mouselab,20,422401,default,5
mouselab,False,"[0, 0, 3, 3, 1, 1]","[[4, 8], [4, 5], [5, 2], [4, 5], [4, 6]]","[[0, 0], [2, 0], [2, 2], [2, 2], [2, 2]]","[10, 10, 1, 6, 3]",16,17,1,0.06,0.057999999999999996,0.002,"[0, 3, 1]",default,control,1,False,True,2,2,5,2,9304,implicit-mouselab,21,433210,default,5
mouselab,False,"[7, 7, 6, 6]","[[3, 6], [4, 6], [2, 6], [7, 6], [5, 3]]","[[2, 2], [2, 2], [2, 2], [0, 0], [2, 2]]","[2, 2, 2, 19, 5]",26,18,0,0.059,0.057666666666666665,0.0013333333333333333,"[7, 6]",default,default,1,False,False,2,2,5,2,6854,implicit-mouselab,22,441458,default,5
mouselab,False,"[3, 3, 2, 2]","[[5, 7], [4, 6]]","[[2, 2], [0, 0]]","[3, 27]",24,19,1,0.061,0.059666666666666666,0.0013333333333333333,"[3, 2]",default,default,1,False,True,2,2,2,2,5846,implicit-mouselab,23,448233,default,5
mouselab,False,"[6, 6, 8, 8, 7, 7]","[[7, 3, 7, 6, 6], [8, 6, 6, 7, 5]]","[[2, 2, 2, 2, 2], [2, 0, 0, 0, 2]]","[11, 19]",8,20,3,0.066,0.064,0.002,"[6, 8, 7]",default,control,0,False,False,5,5,2,2,6271,implicit-mouselab,24,455290,default,5
mouselab,False,"[0, 0, 2, 2, 4, 4]","[[10, 5, 3, 7, 7], [4, 4, 7, 5, 7]]","[[0, 2, 0, 2, 0], [2, 2, 2, 2, 2]]","[29, 1]",28,21,0,0.098,0.096,0.002,"[0, 2, 4]",default,control,0,False,True,5,5,2,2,4535,implicit-mouselab,25,460649,default,5
mouselab,False,"[6, 6, 7, 7]","[[8, 2], [3, 7], [5, 6], [3, 4], [5, 3]]","[[2, 2], [2, 2], [2, 2], [0, 0], [2, 2]]","[2, 6, 2, 18, 2]",24,22,1,0.045,0.043666666666666666,0.0013333333333333333,"[6, 7]",default,control,0,False,False,2,2,5,2,3263,implicit-mouselab,26,465513,default,5
mouselab,False,"[2, 2, 3, 3, 6, 6, 7, 7]","[[4, 4], [6, 5], [4, 6], [5, 2], [6, 8]]","[[2, 2], [0, 0], [2, 2], [0, 0], [2, 2]]","[1, 17, 4, 6, 2]",22,23,0,0.055,0.052333333333333336,0.0026666666666666666,"[2, 3, 6, 7]",default,default,0,False,True,2,2,5,2,11111,implicit-mouselab,27,478025,default,5
mouselab,False,"[0, 0, 1, 1]","[[4, 6, 5, 5, 6], [4, 6, 4, 4, 4]]","[[0, 0, 2, 2, 2], [2, 2, 2, 2, 2]]","[22, 8]",14,24,3,0.047,0.04566666666666667,0.0013333333333333333,"[0, 1]",default,default,1,False,False,5,5,2,2,6704,implicit-mouselab,28,487777,default,5
mouselab,False,"[0, 0, 1, 1]","[[3, 5], [4, 4]]","[[0, 0], [2, 2]]","[21, 9]",12,25,1,0.047,0.04566666666666667,0.0013333333333333333,"[0, 1]",default,control,1,False,True,2,2,2,2,6343,implicit-mouselab,29,494881,default,5
mouselab,False,"[0, 0, 2, 2, 3, 3, 8, 8, 7, 7]","[[4, 2, 6, 6, 2], [7, 7, 6, 6, 4]]","[[0, 2, 0, 0, 2], [2, 2, 0, 0, 2]]","[18, 12]",6,26,3,0.06,0.056666666666666664,0.0033333333333333335,"[0, 2, 3, 8, 7]",default,control,3,False,True,5,5,2,2,8839,implicit-mouselab,30,504688,default,5
mouselab,False,[],"[[2, 7, 5, 5, 8], [3, 7, 2, 5, 4], [5, 5, 8, 7, 5], [6, 3, 7, 2, 6], [4, 7, 7, 5, 4]]","[[2, 2, 2, 2, 2], [2, 2, 2, 2, 2], [2, 2, 2, 2, 2], [2, 2, 2, 2, 2], [2, 2, 2, 2, 2]]","[2, 7, 7, 6, 8]",8,27,2,0.059,0.059,0.0,[],default,default,2,True,True,5,5,5,2,2415,implicit-mouselab,31,508424,default,5
mouselab,False,"[6, 6, 7, 7, 5, 5]","[[7, 2], [6, 4], [5, 5], [3, 3], [7, 4]]","[[2, 2], [2, 2], [2, 0], [0, 0], [2, 2]]","[4, 2, 7, 14, 3]",18,28,1,0.035,0.033,0.002,"[6, 7, 5]",default,control,0,False,False,2,2,5,2,6681,implicit-mouselab,32,516665,default,5
mouselab,False,[],"[[8, 8, 8, 4, 6], [7, 3, 4, 3, 4], [7, 5, 7, 6, 4], [5, 3, 6, 9, 1], [5, 5, 6, 4, 5]]","[[2, 2, 2, 2, 2], [2, 2, 2, 2, 2], [2, 2, 2, 2, 2], [2, 2, 2, 2, 2], [2, 2, 2, 2, 2]]","[4, 6, 7, 4, 9]",8,29,0,0.063,0.063,0.0,[],default,default,0,True,True,5,5,5,2,2934,implicit-mouselab,33,521024,default,5
mouselab,False,[],"[[7, 1, 6, 8, 3], [4, 8, 5, 2, 5]]","[[2, 2, 2, 2, 2], [2, 2, 2, 2, 2]]","[13, 17]",4,30,0,0.053,0.053,0.0,[],default,default,0,True,True,5,5,2,2,2447,implicit-mouselab,34,524288,default,5
mouselab,False,"[10, 10, 12, 12, 13, 13]","[[6, 4, 2, 7, 2], [5, 6, 4, 6, 5], [8, 5, 6, 6, 5], [6, 4, 5, 5, 6], [3, 4, 5, 2, 6]]","[[2, 2, 2, 2, 2], [2, 2, 2, 2, 2], [0, 2, 0, 0, 2], [2, 2, 2, 2, 2], [2, 2, 2, 2, 2]]","[7, 3, 13, 5, 2]",16,31,0,0.066,0.064,0.002,"[10, 12, 13]",default,control,0,False,True,5,5,5,2,6903,implicit-mouselab,35,532560,default,5
mouselab,False,"[5, 5, 7, 7, 9, 9, 6, 6]","[[6, 2, 3, 1, 2], [7, 4, 6, 6, 4]]","[[2, 2, 2, 2, 2], [0, 0, 0, 2, 0]]","[6, 24]",18,32,0,0.068,0.06533333333333334,0.0026666666666666666,"[5, 7, 9, 6]",default,default,0,False,True,5,5,2,2,8015,implicit-mouselab,36,541224,default,5
mouselab,False,"[20, 20, 22, 22, 23, 23, 24, 24, 21, 21, 17, 17, 4, 4]","[[4, 4, 1, 5, 4], [3, 4, 3, 4, 6], [5, 5, 4, 6, 2], [6, 5, 5, 3, 4], [3, 3, 5, 4, 5]]","[[2, 2, 2, 2, 0], [2, 2, 2, 2, 2], [2, 2, 2, 2, 2], [2, 2, 0, 2, 2], [0, 0, 0, 0, 0]]","[6, 3, 6, 6, 9]",6,33,2,0.038,0.03333333333333333,0.004666666666666667,"[20, 22, 23, 24, 21, 17, 4]",default,control,3,False,False,5,5,5,2,14831,implicit-mouselab,37,557472,default,5
mouselab,False,[],"[[6, 3], [4, 4]]","[[2, 2], [2, 2]]","[12, 18]",6,34,0,0.048,0.048,0.0,[],default,default,0,True,True,2,2,2,2,1799,implicit-mouselab,38,560280,default,5
mouselab,True,"[3, 3, 2, 2]","[[3, 4], [7, 5]]","[[2, 2], [0, 0]]","[10, 20]",10,1,0,0.057,0.05566666666666667,0.0013333333333333333,"[3, 2]",default,control,0,False,True,2,2,2,2,5845,implicit-mouselab,4,183020,default,6
mouselab,True,"[18, 18, 2, 2, 8, 8, 12, 12]","[[8, 4, 4, 6, 7], [4, 4, 5, 10, 6], [8, 5, 4, 2, 5], [7, 7, 6, 6, 5], [4, 6, 5, 7, 4]]","[[2, 2, 0, 2, 2], [2, 2, 2, 0, 2], [2, 2, 0, 2, 2], [2, 2, 2, 0, 2], [2, 2, 2, 2, 2]]","[6, 5, 6, 12, 1]",12,2,3,0.059,0.05633333333333333,0.0026666666666666666,"[18, 2, 8, 12]",default,control,0,False,False,5,5,5,2,13594,implicit-mouselab,5,203064,default,6
mouselab,False,[],"[[6, 10, 3, 5, 4], [6, 4, 4, 4, 7], [3, 6, 7, 3, 4], [3, 6, 5, 5, 5], [7, 8, 6, 8, 2]]","[[2, 2, 2, 2, 2], [2, 2, 2, 2, 2], [2, 2, 2, 2, 2], [2, 2, 2, 2, 2], [2, 2, 2, 2, 2]]","[7, 2, 7, 7, 7]",8,3,1,0.073,0.073,0.0,[],default,default,1,True,True,5,5,5,2,5486,implicit-mouselab,7,214336,default,6
mouselab,False,"[15, 15, 17, 17, 19, 19]","[[6, 6, 4, 4, 2], [5, 6, 6, 3, 8], [4, 9, 5, 3, 5], [5, 4, 3, 5, 6], [4, 7, 5, 8, 4]]","[[2, 2, 2, 2, 2], [2, 2, 2, 2, 2], [2, 2, 2, 2, 2], [0, 2, 0, 2, 0], [2, 2, 2, 2, 2]]","[1, 5, 3, 19, 2]",26,4,4,0.06,0.057999999999999996,0.002,"[15, 17, 19]",default,control,1,False,False,5,5,5,2,12630,implicit-mouselab,8,232877,default,6
mouselab,False,[],"[[4, 4], [7, 6], [7, 8], [8, 2], [2, 5]]","[[2, 2], [2, 2], [2, 2], [2, 2], [2, 2]]","[19, 2, 2, 5, 2]",26,5,0,0.049,0.049,0.0,[],default,default,0,True,True,2,2,5,2,3793,implicit-mouselab,9,239715,default,6
mouselab,False,"[0, 0, 9, 9, 8, 8, 1, 1]","[[5, 1], [5, 6], [8, 5], [7, 5], [2, 5]]","[[0, 0], [2, 2], [2, 2], [2, 2], [0, 0]]","[8, 7, 4, 3, 8]",10,6,0,0.048,0.04533333333333334,0.0026666666666666666,"[0, 9, 8, 1]",default,control,0,False,True,2,2,5,2,12922,implicit-mouselab,10,256558,default,6
mouselab,False,"[20, 20, 24, 24, 9, 9, 5, 5]","[[6, 2, 7, 5, 8], [3, 2, 5, 6, 6], [6, 4, 5, 6, 6], [5, 5, 7, 5, 7], [9, 3, 4, 10, 3]]","[[2, 2, 2, 2, 2], [0, 2, 2, 2, 0], [2, 2, 2, 2, 2], [2, 2, 2, 2, 2], [0, 2, 2, 2, 0]]","[5, 7, 3, 8, 7]",8,7,0,0.057,0.05433333333333334,0.0026666666666666666,"[20, 24, 9, 5]",default,control,3,False,False,5,5,5,2,14489,implicit-mouselab,11,275821,default,6
mouselab,False,"[2, 2, 1, 1, 0, 0, 4, 4]","[[4, 5, 4, 6, 6], [2, 4, 5, 4, 3]]","[[0, 0, 0, 2, 0], [2, 2, 2, 2, 2]]","[26, 4]",22,8,4,0.056,0.05333333333333334,0.0026666666666666666,"[2, 1, 0, 4]",default,control,3,False,False,5,5,2,2,9679,implicit-mouselab,12,289579,default,6
mouselab,False,[],"[[7, 3], [5, 5], [5, 6], [4, 6], [6, 5]]","[[2, 2], [2, 2], [2, 2], [2, 2], [2, 2]]","[10, 3, 2, 2, 13]",22,9,0,0.06,0.06,0.0,[],default,default,0,True,True,2,2,5,2,2645,implicit-mouselab,13,295153,default,6
mouselab,False,[],"[[7, 6], [2, 4]]","[[2, 2], [2, 2]]","[23, 7]",16,10,1,0.055,0.055,0.0,[],default,default,1,True,True,2,2,2,2,3210,implicit-mouselab,14,300199,default,6
mouselab,False,[],"[[6, 6, 5, 6, 6], [7, 6, 7, 7, 7]]","[[2, 2, 2, 2, 2], [2, 2, 2, 2, 2]]","[6, 24]",18,11,4,0.068,0.068,0.0,[],default,default,4,True,True,5,5,2,2,9296,implicit-mouselab,15,311332,default,6
mouselab,False,"[21, 21, 23, 23, 11, 11, 13, 13]","[[5, 3, 6, 4, 6], [7, 6, 5, 3, 5], [7, 5, 3, 7, 6], [6, 5, 4, 8, 5], [4, 6, 6, 6, 3]]","[[2, 2, 2, 2, 2], [2, 2, 2, 2, 2], [2, 0, 2, 0, 2], [2, 2, 2, 2, 2], [2, 0, 2, 0, 2]]","[2, 1, 7, 7, 13]",18,12,3,0.065,0.06233333333333334,0.0026666666666666666,"[21, 23, 11, 13]",default,control,0,False,False,5,5,5,2,9913,implicit-mouselab,16,325872,default,6
mouselab,False,[],"[[4, 3], [4, 6]]","[[2, 2], [2, 2]]","[5, 25]",20,13,1,0.055,0.055,0.0,[],default,default,1,True,True,2,2,2,2,2945,implicit-mouselab,17,330306,default,6
mouselab,False,"[0, 0, 1, 1]","[[5, 4], [2, 7]]","[[0, 0], [2, 2]]","[16, 14]",2,14,0,0.036,0.034666666666666665,0.0013333333333333333,"[0, 1]",default,control,1,False,False,2,2,2,2,5364,implicit-mouselab,18,338167,default,6
mouselab,False,[],"[[6, 2, 3, 5, 7], [5, 5, 3, 5, 6]]","[[2, 2, 2, 2, 2], [2, 2, 2, 2, 2]]","[17, 13]",4,15,4,0.066,0.066,0.0,[],default,default,4,True,True,5,5,2,2,3474,implicit-mouselab,19,343827,default,6
mouselab,False,"[2, 2, 1, 1, 3, 3]","[[5, 2, 6, 7, 8], [6, 5, 0, 3, 4]]","[[2, 0, 0, 0, 2], [2, 2, 2, 2, 2]]","[28, 2]",26,16,3,0.067,0.065,0.002,"[2, 1, 3]",default,control,4,False,False,5,5,2,2,6650,implicit-mouselab,20,353709,default,6
mouselab,False,"[3, 3, 2, 2]","[[3, 6], [2, 7]]","[[2, 2], [0, 0]]","[11, 19]",8,17,1,0.066,0.06466666666666666,0.0013333333333333333,"[3, 2]",default,control,1,False,True,2,2,2,2,4704,implicit-mouselab,21,361858,default,6
mouselab,False,[],"[[5, 8, 3, 6, 5], [7, 8, 6, 7, 5]]","[[2, 2, 2, 2, 2], [2, 2, 2, 2, 2]]","[1, 29]",28,18,1,0.08,0.08,0.0,[],default,default,1,True,True,5,5,2,2,6445,implicit-mouselab,22,370714,default,6
mouselab,False,"[1, 1, 0, 0, 2, 2, 3, 3]","[[5, 7, 5, 0, 5], [4, 3, 5, 3, 4], [6, 5, 5, 4, 4], [7, 4, 6, 4, 5], [2, 4, 7, 4, 5]]","[[0, 0, 0, 0, 2], [2, 2, 2, 2, 2], [2, 2, 2, 2, 2], [2, 2, 2, 2, 2], [2, 2, 2, 2, 2]]","[11, 3, 3, 5, 8]",14,19,1,0.051,0.04833333333333333,0.0026666666666666666,"[1, 0, 2, 3]",default,control,2,False,False,5,5,5,2,9043,implicit-mouselab,23,383761,default,6
mouselab,False,"[2, 2, 3, 3]","[[3, 6], [5, 7], [5, 2], [5, 8], [7, 5]]","[[2, 2], [0, 0], [2, 2], [2, 2], [2, 2]]","[3, 10, 5, 6, 6]",8,20,1,0.059,0.057666666666666665,0.0013333333333333333,"[2, 3]",default,control,1,False,True,2,2,5,2,5110,implicit-mouselab,24,392369,default,6
mouselab,False,"[3, 3, 1, 1, 2, 2, 0, 0]","[[5, 4, 4, 2, 5], [4, 5, 5, 6, 2]]","[[0, 0, 0, 0, 2], [2, 2, 2, 2, 2]]","[24, 6]",18,21,0,0.048,0.04533333333333334,0.0026666666666666666,"[3, 1, 2, 0]",default,control,0,False,True,5,5,2,2,7528,implicit-mouselab,25,402182,default,6
mouselab,False,[],"[[5, 4], [3, 5]]","[[2, 2], [2, 2]]","[29, 1]",28,22,1,0.04,0.04,0.0,[],default,default,1,True,True,2,2,2,2,3710,implicit-mouselab,26,407521,default,6
mouselab,False,"[2, 2, 3, 3]","[[6, 7], [8, 4]]","[[2, 2], [0, 0]]","[8, 22]",14,23,0,0.075,0.07366666666666666,0.0013333333333333333,"[2, 3]",default,control,0,False,True,2,2,2,2,3710,implicit-mouselab,27,415350,default,6
mouselab,False,"[24, 24, 21, 21, 22, 22, 23, 23]","[[6, 3, 5, 3, 7], [4, 5, 3, 7, 5], [3, 6, 2, 2, 10], [3, 9, 4, 4, 5], [6, 2, 5, 4, 7]]","[[2, 2, 2, 2, 2], [2, 2, 2, 2, 2], [2, 2, 2, 2, 2], [2, 2, 2, 2, 2], [2, 0, 0, 0, 0]]","[2, 5, 1, 9, 13]",20,24,4,0.062,0.059333333333333335,0.0026666666666666666,"[24, 21, 22, 23]",default,default,4,False,True,5,5,5,2,12504,implicit-mouselab,28,430285,default,6
mouselab,False,[],"[[4, 4], [4, 5], [4, 5], [5, 7], [5, 5]]","[[2, 2], [2, 2], [2, 2], [2, 2], [2, 2]]","[6, 4, 2, 2, 16]",20,25,1,0.049,0.049,0.0,[],default,default,1,True,True,2,2,5,2,2812,implicit-mouselab,29,435800,default,6
mouselab,False,"[15, 15, 17, 17, 18, 18, 19, 19]","[[7, 6, 9, 7, 5], [9, 6, 4, 5, 2], [3, 5, 7, 2, 7], [2, 6, 6, 4, 2], [3, 1, 8, 9, 2]]","[[2, 2, 2, 2, 2], [2, 2, 2, 2, 2], [2, 2, 2, 2, 2], [0, 2, 0, 0, 0], [2, 2, 2, 2, 2]]","[3, 8, 2, 14, 3]",20,26,2,0.06,0.05733333333333333,0.0026666666666666666,"[15, 17, 18, 19]",default,default,2,False,True,5,5,5,2,8506,implicit-mouselab,30,446223,default,6
mouselab,False,[],"[[5, 5, 5, 7, 5], [4, 5, 6, 8, 3], [4, 5, 2, 5, 4], [3, 5, 6, 4, 5], [8, 2, 3, 7, 6]]","[[2, 2, 2, 2, 2], [2, 2, 2, 2, 2], [2, 2, 2, 2, 2], [2, 2, 2, 2, 2], [2, 2, 2, 2, 2]]","[12, 3, 5, 8, 2]",16,27,3,0.06,0.06,0.0,[],default,default,3,True,True,5,5,5,2,2134,implicit-mouselab,31,450689,default,6
mouselab,False,"[7, 7, 6, 6, 8, 8, 9, 9]","[[6, 4, 8, 5, 6], [4, 2, 6, 6, 5]]","[[2, 2, 2, 2, 2], [2, 0, 0, 0, 0]]","[12, 18]",6,28,3,0.056,0.05333333333333334,0.0026666666666666666,"[7, 6, 8, 9]",default,default,2,False,False,5,5,2,2,12266,implicit-mouselab,32,464706,default,6
mouselab,False,[],"[[8, 6], [4, 5], [2, 6], [4, 6], [4, 4]]","[[2, 2], [2, 2], [2, 2], [2, 2], [2, 2]]","[13, 3, 8, 2, 4]",18,29,1,0.056,0.056,0.0,[],default,default,1,True,True,2,2,5,2,3283,implicit-mouselab,33,470093,default,6
mouselab,False,"[5, 5, 9, 9, 7, 7, 8, 8]","[[7, 6, 5, 5, 7], [3, 5, 6, 7, 6]]","[[2, 2, 2, 2, 2], [0, 2, 0, 0, 0]]","[5, 25]",20,30,3,0.067,0.06433333333333334,0.0026666666666666666,"[5, 9, 7, 8]",default,control,4,False,False,5,5,2,2,7646,implicit-mouselab,34,479717,default,6
mouselab,False,"[0, 0, 1, 1, 3, 3, 2, 2, 2]","[[5, 5], [5, 4]]","[[0, 0], [0, 0]]","[23, 7]",16,31,0,0.05,0.04733333333333334,0.0026666666666666666,"[0, 1, 3, 2]",default,control,0,False,True,2,2,2,2,9531,implicit-mouselab,35,491183,default,6
mouselab,False,"[6, 6, 7, 7, 1, 1, 0, 0]","[[8, 8], [6, 4], [6, 8], [6, 8], [5, 6]]","[[0, 0], [2, 2], [2, 2], [0, 0], [2, 2]]","[7, 3, 5, 10, 5]",10,32,1,0.073,0.07033333333333333,0.0026666666666666666,"[6, 7, 1, 0]",default,control,1,False,True,2,2,5,2,8906,implicit-mouselab,36,502551,default,6
mouselab,False,[],"[[3, 7], [6, 8]]","[[2, 2], [2, 2]]","[25, 5]",20,33,1,0.072,0.072,0.0,[],default,default,1,True,True,2,2,2,2,2429,implicit-mouselab,37,506746,default,6
mouselab,False,"[0, 0, 4, 4, 5, 5, 1, 1]","[[4, 6], [7, 6], [5, 3], [4, 5], [7, 3]]","[[0, 0], [2, 2], [0, 0], [2, 2], [2, 2]]","[11, 4, 11, 3, 1]",20,34,1,0.047,0.044333333333333336,0.0026666666666666666,"[0, 4, 5, 1]",default,control,0,False,False,2,2,5,2,12036,implicit-mouselab,38,524055,default,6
mouselab,True,"[7, 7, 17, 17]","[[3, 5, 7, 6, 9], [5, 6, 6, 7, 6], [7, 5, 7, 7, 3], [8, 5, 7, 6, 5], [9, 6, 5, 3, 3]]","[[2, 2, 2, 2, 2], [2, 2, 0, 2, 2], [2, 2, 2, 2, 2], [2, 2, 0, 2, 2], [2, 2, 2, 2, 2]]","[6, 18, 2, 3, 1]",24,1,2,0.063,0.06166666666666667,0.0013333333333333333,"[7, 17]",default,control,0,False,False,5,5,5,2,9739,implicit-mouselab,4,362335,default,8
mouselab,True,[],"[[5, 7], [9, 1]]","[[2, 2], [2, 2]]","[27, 3]",24,2,1,0.064,0.064,0.0,[],default,control,0,False,False,2,2,2,2,2269,implicit-mouselab,5,367634,default,8
mouselab,False,[],"[[7, 2, 7, 7, 3], [10, 5, 5, 3, 9]]","[[2, 2, 2, 2, 2], [2, 2, 2, 2, 2]]","[18, 12]",6,3,0,0.082,0.082,0.0,[],default,control,0,False,True,5,5,2,2,5161,implicit-mouselab,7,382420,default,8
mouselab,False,[],"[[4, 6], [4, 5], [6, 8], [4, 4], [8, 4]]","[[2, 2], [2, 2], [2, 2], [2, 2], [2, 2]]","[11, 6, 3, 3, 7]",12,4,0,0.051,0.051,0.0,[],default,default,1,False,False,2,2,5,2,21064,implicit-mouselab,8,406979,default,8
mouselab,False,[],"[[2, 5], [2, 5], [3, 5], [4, 5], [5, 8]]","[[2, 2], [2, 2], [2, 2], [2, 2], [2, 2]]","[2, 6, 10, 2, 10]",16,5,1,0.06,0.06,0.0,[],default,default,1,True,True,2,2,5,2,3372,implicit-mouselab,9,412358,default,8
mouselab,False,[],"[[3, 5, 6, 6, 6], [3, 5, 7, 5, 3], [7, 5, 4, 6, 5], [6, 4, 8, 3, 6], [7, 7, 7, 2, 5]]","[[2, 2, 2, 2, 2], [2, 2, 2, 2, 2], [2, 2, 2, 2, 2], [2, 2, 2, 2, 2], [2, 2, 2, 2, 2]]","[21, 1, 2, 3, 3]",30,6,2,0.062,0.062,0.0,[],default,control,2,False,True,5,5,5,2,5255,implicit-mouselab,10,419840,default,8
mouselab,False,[],"[[2, 6, 6, 6, 4], [2, 3, 4, 4, 4]]","[[2, 2, 2, 2, 2], [2, 2, 2, 2, 2]]","[25, 5]",20,7,4,0.04,0.04,0.0,[],default,default,3,False,False,5,5,2,2,5542,implicit-mouselab,11,433228,default,8
mouselab,False,[],"[[5, 4], [5, 6], [4, 4], [6, 5], [9, 5]]","[[2, 2], [2, 2], [2, 2], [2, 2], [2, 2]]","[16, 3, 5, 1, 5]",20,8,0,0.055,0.055,0.0,[],default,control,0,False,True,2,2,5,2,3765,implicit-mouselab,12,440002,default,8
mouselab,False,[],"[[5, 5, 6, 7, 6], [5, 6, 6, 6, 6]]","[[2, 2, 2, 2, 2], [2, 2, 2, 2, 2]]","[21, 9]",12,9,3,0.067,0.067,0.0,[],default,default,3,True,True,5,5,2,2,2563,implicit-mouselab,13,445253,default,8
mouselab,False,[],"[[6, 6], [6, 2], [7, 5], [6, 7], [4, 4]]","[[2, 2], [2, 2], [2, 2], [2, 2], [2, 2]]","[9, 9, 6, 5, 1]",12,10,1,0.047,0.047,0.0,[],default,control,0,False,False,2,2,5,2,4292,implicit-mouselab,14,451165,default,8
mouselab,False,[],"[[7, 5, 5, 5, 4], [2, 4, 8, 6, 7]]","[[2, 2, 2, 2, 2], [2, 2, 2, 2, 2]]","[29, 1]",28,11,0,0.068,0.068,0.0,[],default,control,2,False,False,5,5,2,2,1352,implicit-mouselab,15,454773,default,8
mouselab,False,"[6, 6, 10, 10]","[[6, 6, 5, 6, 5], [7, 8, 3, 5, 3], [7, 6, 3, 5, 3], [4, 2, 6, 6, 4], [4, 4, 4, 7, 3]]","[[2, 2, 2, 2, 2], [2, 0, 2, 2, 2], [0, 2, 2, 2, 2], [2, 2, 2, 2, 2], [2, 2, 2, 2, 2]]","[2, 5, 4, 5, 14]",16,12,1,0.047,0.04566666666666667,0.0013333333333333333,"[6, 10]",default,control,3,False,False,5,5,5,2,8535,implicit-mouselab,16,464980,default,8
mouselab,False,[],"[[5, 4], [6, 2]]","[[2, 2], [2, 2]]","[23, 7]",16,13,0,0.052,0.052,0.0,[],default,default,0,True,True,2,2,2,2,3768,implicit-mouselab,17,470639,default,8
mouselab,False,[],"[[5, 3], [6, 5], [1, 6], [6, 6], [4, 7]]","[[2, 2], [2, 2], [2, 2], [2, 2], [2, 2]]","[5, 3, 4, 6, 12]",12,14,1,0.058,0.058,0.0,[],default,control,1,False,True,2,2,5,2,4141,implicit-mouselab,18,476307,default,8
mouselab,False,[],"[[7, 4, 4, 10, 3], [6, 3, 6, 7, 7], [6, 9, 6, 3, 5], [4, 5, 4, 5, 3], [6, 5, 4, 6, 8]]","[[2, 2, 2, 2, 2], [2, 2, 2, 2, 2], [2, 2, 2, 2, 2], [2, 2, 2, 2, 2], [2, 2, 2, 2, 2]]","[1, 17, 1, 9, 2]",28,15,4,0.057,0.057,0.0,[],default,control,3,False,False,5,5,5,2,2017,implicit-mouselab,19,479555,default,8
mouselab,False,"[0, 0]","[[4, 7], [5, 2], [4, 3], [3, 4], [5, 3]]","[[0, 2], [2, 2], [2, 2], [2, 2], [2, 2]]","[4, 4, 8, 4, 10]",12,16,0,0.043,0.04233333333333333,0.0006666666666666666,[0],default,control,0,False,True,2,2,5,2,3471,implicit-mouselab,20,484207,default,8
mouselab,False,[],"[[8, 6], [3, 6]]","[[2, 2], [2, 2]]","[26, 4]",22,17,0,0.073,0.073,0.0,[],default,default,1,False,False,2,2,2,2,4626,implicit-mouselab,21,490036,default,8
mouselab,False,[],"[[4, 7, 6, 4, 5], [1, 4, 2, 5, 4]]","[[2, 2, 2, 2, 2], [2, 2, 2, 2, 2]]","[23, 7]",16,18,2,0.051,0.051,0.0,[],default,default,1,False,False,5,5,2,2,4683,implicit-mouselab,22,496014,default,8
mouselab,False,[],"[[4, 6, 6, 3, 5], [6, 4, 4, 9, 4], [7, 5, 5, 6, 3], [2, 7, 8, 4, 3], [4, 5, 4, 7, 5]]","[[2, 2, 2, 2, 2], [2, 2, 2, 2, 2], [2, 2, 2, 2, 2], [2, 2, 2, 2, 2], [2, 2, 2, 2, 2]]","[6, 1, 5, 7, 11]",12,19,3,0.054,0.054,0.0,[],default,default,3,True,True,5,5,5,2,1858,implicit-mouselab,23,501098,default,8
mouselab,False,[],"[[4, 6, 7, 7, 7], [5, 4, 3, 9, 5], [3, 6, 7, 5, 2], [3, 4, 7, 4, 6], [6, 8, 2, 7, 4]]","[[2, 2, 2, 2, 2], [2, 2, 2, 2, 2], [2, 2, 2, 2, 2], [2, 2, 2, 2, 2], [2, 2, 2, 2, 2]]","[15, 7, 5, 2, 1]",20,20,0,0.041,0.041,0.0,[],default,control,3,False,False,5,5,5,2,1981,implicit-mouselab,24,504932,default,8
mouselab,False,[],"[[7, 2, 5, 4, 6], [5, 3, 5, 6, 6], [4, 2, 5, 7, 4], [6, 7, 3, 5, 4], [7, 2, 3, 5, 5]]","[[2, 2, 2, 2, 2], [2, 2, 2, 2, 2], [2, 2, 2, 2, 2], [2, 2, 2, 2, 2], [2, 2, 2, 2, 2]]","[7, 10, 8, 3, 2]",14,21,0,0.054,0.054,0.0,[],default,default,0,True,True,5,5,5,2,4939,implicit-mouselab,25,512484,default,8
mouselab,False,[],"[[4, 5], [5, 7]]","[[2, 2], [2, 2]]","[28, 2]",26,22,1,0.051,0.051,0.0,[],default,control,1,False,True,2,2,2,2,1669,implicit-mouselab,26,515701,default,8
mouselab,False,[],"[[7, 6, 6, 7, 5], [3, 6, 3, 4, 6], [6, 6, 3, 7, 5], [6, 5, 3, 6, 3], [7, 3, 6, 6, 6]]","[[2, 2, 2, 2, 2], [2, 2, 2, 2, 2], [2, 2, 2, 2, 2], [2, 2, 2, 2, 2], [2, 2, 2, 2, 2]]","[13, 1, 8, 6, 2]",18,23,4,0.047,0.047,0.0,[],default,default,3,False,False,5,5,5,2,3872,implicit-mouselab,27,521281,default,8
mouselab,False,[],"[[7, 3], [4, 2]]","[[2, 2], [2, 2]]","[29, 1]",28,24,0,0.069,0.069,0.0,[],default,control,0,False,True,2,2,2,2,1160,implicit-mouselab,28,523461,default,8
mouselab,False,[],"[[7, 4], [3, 3]]","[[2, 2], [2, 2]]","[20, 10]",10,25,0,0.057,0.057,0.0,[],default,default,0,True,True,2,2,2,2,1629,implicit-mouselab,29,526060,default,8
mouselab,False,[],"[[6, 5], [1, 7], [5, 4], [6, 3], [2, 7]]","[[2, 2], [2, 2], [2, 2], [2, 2], [2, 2]]","[6, 1, 2, 16, 5]",20,26,1,0.043,0.043,0.0,[],default,default,1,True,True,2,2,5,2,3012,implicit-mouselab,30,530311,default,8
mouselab,False,[],"[[6, 5], [3, 5]]","[[2, 2], [2, 2]]","[26, 4]",22,27,0,0.056,0.056,0.0,[],default,default,1,False,False,2,2,2,2,1577,implicit-mouselab,31,532873,default,8
mouselab,False,[],"[[4, 7, 3, 4, 4], [5, 4, 7, 2, 8]]","[[2, 2, 2, 2, 2], [2, 2, 2, 2, 2]]","[18, 12]",6,28,4,0.056,0.056,0.0,[],default,default,4,True,True,5,5,2,2,4917,implicit-mouselab,32,538957,default,8
mouselab,False,[],"[[5, 8], [7, 8], [2, 4], [4, 2], [5, 4]]","[[2, 2], [2, 2], [2, 2], [2, 2], [2, 2]]","[14, 3, 2, 6, 5]",16,29,0,0.048,0.048,0.0,[],default,default,1,False,False,2,2,5,2,3508,implicit-mouselab,33,543679,default,8
mouselab,False,[],"[[1, 5, 1, 6, 8], [4, 4, 4, 8, 4], [7, 2, 5, 5, 2], [6, 2, 4, 4, 5], [3, 6, 5, 3, 5]]","[[2, 2, 2, 2, 2], [2, 2, 2, 2, 2], [2, 2, 2, 2, 2], [2, 2, 2, 2, 2], [2, 2, 2, 2, 2]]","[8, 2, 4, 5, 11]",14,30,3,0.046,0.046,0.0,[],default,default,3,True,True,5,5,5,2,1401,implicit-mouselab,34,546323,default,8
mouselab,False,[],"[[7, 8, 4, 6, 3], [4, 5, 8, 2, 6]]","[[2, 2, 2, 2, 2], [2, 2, 2, 2, 2]]","[1, 29]",28,31,2,0.079,0.079,0.0,[],default,control,1,False,False,5,5,2,2,1565,implicit-mouselab,35,549484,default,8
mouselab,False,[],"[[2, 4, 5, 5, 5], [2, 6, 7, 8, 4]]","[[2, 2, 2, 2, 2], [2, 2, 2, 2, 2]]","[7, 23]",16,32,0,0.02,0.02,0.0,[],default,control,3,False,False,5,5,2,2,1064,implicit-mouselab,36,552845,default,8
mouselab,False,[],"[[6, 7], [5, 4]]","[[2, 2], [2, 2]]","[10, 20]",10,33,0,0.053,0.053,0.0,[],default,control,1,False,False,2,2,2,2,1841,implicit-mouselab,37,555615,default,8
mouselab,False,[],"[[3, 3], [4, 6]]","[[2, 2], [2, 2]]","[20, 10]",10,34,0,0.033,0.033,0.0,[],default,control,1,False,False,2,2,2,2,1511,implicit-mouselab,38,558097,default,8
mouselab,True,[],"[[1, 3], [7, 6]]","[[2, 2], [2, 2]]","[21, 9]",12,1,0,0.028,0.028,0.0,[],default,control,1,False,False,2,2,2,2,5253,implicit-mouselab,4,160147,default,9
mouselab,True,[],"[[2, 4, 6, 3, 6], [7, 5, 4, 5, 7], [7, 4, 3, 7, 5], [5, 5, 5, 5, 8], [6, 5, 5, 4, 5]]","[[2, 2, 2, 2, 2], [2, 2, 2, 2, 2], [2, 2, 2, 2, 2], [2, 2, 2, 2, 2], [2, 2, 2, 2, 2]]","[7, 5, 7, 5, 6]",4,2,3,0.048,0.048,0.0,[],default,control,4,False,False,5,5,5,2,11938,implicit-mouselab,5,181153,default,9
mouselab,False,[],"[[7, 3], [5, 4]]","[[2, 2], [2, 2]]","[11, 19]",8,3,0,0.057,0.057,0.0,[],default,control,0,False,True,2,2,2,2,23338,implicit-mouselab,7,211905,default,9
mouselab,False,[],"[[4, 3], [7, 6]]","[[2, 2], [2, 2]]","[15, 15]",0,4,1,0.045,0.045,0.0,[],default,control,0,False,False,2,2,2,2,8107,implicit-mouselab,8,224619,default,9
mouselab,False,[],"[[3, 4, 4, 5, 5], [4, 4, 7, 4, 7]]","[[2, 2, 2, 2, 2], [2, 2, 2, 2, 2]]","[22, 8]",14,5,4,0.055,0.055,0.0,[],default,default,4,True,True,5,5,2,2,8023,implicit-mouselab,9,234484,default,9
mouselab,False,[],"[[5, 4, 6, 6, 3], [4, 5, 4, 7, 3]]","[[2, 2, 2, 2, 2], [2, 2, 2, 2, 2]]","[13, 17]",4,6,2,0.049,0.049,0.0,[],default,control,3,False,False,5,5,2,2,5229,implicit-mouselab,10,243250,default,9
mouselab,False,[],"[[3, 4], [3, 3]]","[[2, 2], [2, 2]]","[18, 12]",6,7,0,0.03,0.03,0.0,[],default,control,1,False,False,2,2,2,2,14097,implicit-mouselab,11,259869,default,9
mouselab,False,[],"[[4, 2], [9, 4]]","[[2, 2], [2, 2]]","[15, 15]",0,8,0,0.065,0.065,0.0,[],default,default,0,True,True,2,2,2,2,2538,implicit-mouselab,12,269581,default,9
mouselab,False,[],"[[4, 5], [5, 8]]","[[2, 2], [2, 2]]","[19, 11]",8,9,1,0.061,0.061,0.0,[],default,control,1,False,True,2,2,2,2,1882,implicit-mouselab,13,273819,default,9
mouselab,False,[],"[[5, 6, 6, 4, 6], [4, 3, 1, 3, 3]]","[[2, 2, 2, 2, 2], [2, 2, 2, 2, 2]]","[17, 13]",4,10,4,0.047,0.047,0.0,[],default,default,4,True,True,5,5,2,2,1842,implicit-mouselab,14,277321,default,9
mouselab,False,[],"[[5, 2, 4, 5, 3], [9, 7, 4, 6, 3]]","[[2, 2, 2, 2, 2], [2, 2, 2, 2, 2]]","[12, 18]",6,11,1,0.05,0.05,0.0,[],default,control,0,False,False,5,5,2,2,2362,implicit-mouselab,15,281277,default,9
mouselab,False,[],"[[6, 3], [4, 4], [5, 4], [9, 6], [6, 9]]","[[2, 2], [2, 2], [2, 2], [2, 2], [2, 2]]","[1, 4, 5, 10, 10]",16,12,0,0.066,0.066,0.0,[],default,default,0,True,True,2,2,5,2,2312,implicit-mouselab,16,285239,default,9
mouselab,False,[],"[[4, 6], [5, 4]]","[[2, 2], [2, 2]]","[24, 6]",18,13,1,0.056,0.056,0.0,[],default,default,1,True,True,2,2,2,2,2116,implicit-mouselab,17,288895,default,9
mouselab,False,[],"[[9, 8], [8, 5], [6, 5], [8, 7], [2, 5]]","[[2, 2], [2, 2], [2, 2], [2, 2], [2, 2]]","[2, 10, 3, 10, 5]",16,14,0,0.069,0.069,0.0,[],default,default,0,True,True,2,2,5,2,3511,implicit-mouselab,18,294281,default,9
mouselab,False,[],"[[9, 4, 4, 4, 6], [5, 5, 5, 7, 5], [6, 5, 8, 4, 6], [4, 5, 3, 4, 4], [6, 7, 7, 5, 4]]","[[2, 2, 2, 2, 2], [2, 2, 2, 2, 2], [2, 2, 2, 2, 2], [2, 2, 2, 2, 2], [2, 2, 2, 2, 2]]","[9, 10, 3, 2, 6]",14,15,0,0.064,0.064,0.0,[],default,default,0,True,True,5,5,5,2,2540,implicit-mouselab,19,298105,default,9
mouselab,False,[],"[[6, 4], [5, 9], [3, 3], [5, 9], [3, 5]]","[[2, 2], [2, 2], [2, 2], [2, 2], [2, 2]]","[6, 1, 7, 12, 4]",14,16,1,0.061,0.061,0.0,[],default,default,1,True,True,2,2,5,2,1612,implicit-mouselab,20,301038,default,9
mouselab,False,[],"[[4, 4, 4, 4, 8], [6, 7, 7, 2, 6], [8, 4, 7, 3, 8], [5, 5, 5, 4, 5], [8, 6, 5, 6, 4]]","[[2, 2, 2, 2, 2], [2, 2, 2, 2, 2], [2, 2, 2, 2, 2], [2, 2, 2, 2, 2], [2, 2, 2, 2, 2]]","[5, 4, 3, 14, 4]",16,17,0,0.057,0.057,0.0,[],default,control,0,False,True,5,5,5,2,3664,implicit-mouselab,21,307073,default,9
mouselab,False,[],"[[5, 8, 3, 0, 6], [4, 4, 7, 5, 4], [3, 4, 7, 8, 6], [4, 6, 5, 5, 7], [7, 4, 6, 2, 2]]","[[2, 2, 2, 2, 2], [2, 2, 2, 2, 2], [2, 2, 2, 2, 2], [2, 2, 2, 2, 2], [2, 2, 2, 2, 2]]","[2, 1, 15, 7, 5]",20,18,2,0.061,0.061,0.0,[],default,default,2,True,True,5,5,5,2,2585,implicit-mouselab,22,311036,default,9
mouselab,False,[],"[[5, 6, 5, 7, 4], [7, 7, 2, 4, 4]]","[[2, 2, 2, 2, 2], [2, 2, 2, 2, 2]]","[10, 20]",10,19,3,0.05,0.05,0.0,[],default,control,1,False,False,5,5,2,2,2532,implicit-mouselab,23,315040,default,9
mouselab,False,[],"[[9, 4], [5, 0]]","[[2, 2], [2, 2]]","[22, 8]",14,20,0,0.079,0.079,0.0,[],default,default,0,True,True,2,2,2,2,1305,implicit-mouselab,24,317422,default,9
mouselab,False,[],"[[4, 8, 4, 8, 4], [4, 5, 8, 5, 2], [4, 5, 5, 4, 8], [3, 8, 6, 3, 4], [6, 4, 6, 0, 3]]","[[2, 2, 2, 2, 2], [2, 2, 2, 2, 2], [2, 2, 2, 2, 2], [2, 2, 2, 2, 2], [2, 2, 2, 2, 2]]","[1, 9, 15, 2, 3]",24,21,1,0.052,0.052,0.0,[],default,default,1,True,True,5,5,5,2,3182,implicit-mouselab,25,321556,default,9
mouselab,False,[],"[[3, 6], [7, 6]]","[[2, 2], [2, 2]]","[15, 15]",0,22,1,0.06,0.06,0.0,[],default,default,1,True,True,2,2,2,2,2791,implicit-mouselab,26,325940,default,9
mouselab,False,[],"[[5, 3, 7, 3, 5], [6, 4, 3, 6, 5], [6, 6, 6, 6, 4], [5, 4, 6, 7, 5], [3, 9, 3, 6, 6]]","[[2, 2, 2, 2, 2], [2, 2, 2, 2, 2], [2, 2, 2, 2, 2], [2, 2, 2, 2, 2], [2, 2, 2, 2, 2]]","[1, 9, 3, 10, 7]",16,23,0,0.049,0.049,0.0,[],default,control,3,False,False,5,5,5,2,10443,implicit-mouselab,27,338265,default,9
mouselab,False,[],"[[7, 4, 7, 8, 4], [5, 4, 4, 5, 2], [3, 5, 6, 6, 5], [2, 4, 7, 6, 6], [4, 7, 4, 3, 8]]","[[2, 2, 2, 2, 2], [2, 2, 2, 2, 2], [2, 2, 2, 2, 2], [2, 2, 2, 2, 2], [2, 2, 2, 2, 2]]","[1, 8, 9, 11, 1]",20,24,0,0.033,0.033,0.0,[],default,control,3,False,False,5,5,5,2,4293,implicit-mouselab,28,344199,default,9
mouselab,False,[],"[[5, 6, 6, 7, 6], [6, 4, 6, 5, 3], [7, 7, 4, 2, 5], [3, 6, 2, 7, 5], [5, 6, 5, 2, 5]]","[[2, 2, 2, 2, 2], [2, 2, 2, 2, 2], [2, 2, 2, 2, 2], [2, 2, 2, 2, 2], [2, 2, 2, 2, 2]]","[3, 2, 13, 4, 8]",18,25,3,0.034,0.034,0.0,[],default,control,1,False,False,5,5,5,2,2827,implicit-mouselab,29,349823,default,9
mouselab,False,[],"[[6, 3, 6, 3, 4], [2, 5, 6, 7, 3]]","[[2, 2, 2, 2, 2], [2, 2, 2, 2, 2]]","[5, 25]",20,26,2,0.06,0.06,0.0,[],default,default,2,True,True,5,5,2,2,1768,implicit-mouselab,30,352832,default,9
mouselab,False,[],"[[4, 5], [3, 6], [5, 5], [8, 5], [2, 7]]","[[2, 2], [2, 2], [2, 2], [2, 2], [2, 2]]","[2, 9, 7, 11, 1]",18,27,0,0.053,0.053,0.0,[],default,control,1,False,False,2,2,5,2,3836,implicit-mouselab,31,358409,default,9
mouselab,False,[],"[[5, 2], [4, 4], [6, 5], [2, 6], [8, 4]]","[[2, 2], [2, 2], [2, 2], [2, 2], [2, 2]]","[11, 8, 8, 2, 1]",18,28,1,0.037,0.037,0.0,[],default,control,0,False,False,2,2,5,2,2337,implicit-mouselab,32,363304,default,9
mouselab,False,[],"[[6, 5, 4, 6, 6], [6, 6, 5, 4, 3], [4, 4, 4, 7, 5], [4, 5, 6, 2, 8], [5, 3, 3, 4, 3]]","[[2, 2, 2, 2, 2], [2, 2, 2, 2, 2], [2, 2, 2, 2, 2], [2, 2, 2, 2, 2], [2, 2, 2, 2, 2]]","[4, 4, 5, 8, 9]",10,29,4,0.051,0.051,0.0,[],default,default,4,True,True,5,5,5,2,959,implicit-mouselab,33,365470,default,9
mouselab,False,[],"[[6, 7, 5, 9, 4], [7, 5, 6, 5, 5]]","[[2, 2, 2, 2, 2], [2, 2, 2, 2, 2]]","[26, 4]",22,30,0,0.061,0.061,0.0,[],default,control,3,False,False,5,5,2,2,3438,implicit-mouselab,34,370384,default,9
mouselab,False,[],"[[4, 7, 5, 7, 2], [6, 4, 6, 4, 5]]","[[2, 2, 2, 2, 2], [2, 2, 2, 2, 2]]","[25, 5]",20,31,3,0.065,0.065,0.0,[],default,default,3,True,True,5,5,2,2,1153,implicit-mouselab,35,372792,default,9
mouselab,False,[],"[[1, 2], [7, 4], [7, 6], [8, 6], [5, 5]]","[[2, 2], [2, 2], [2, 2], [2, 2], [2, 2]]","[3, 6, 9, 2, 10]",14,32,1,0.049,0.049,0.0,[],default,control,0,False,False,2,2,5,2,1776,implicit-mouselab,36,375719,default,9
mouselab,False,[],"[[4, 4], [5, 5], [5, 6], [8, 3], [5, 1]]","[[2, 2], [2, 2], [2, 2], [2, 2], [2, 2]]","[1, 5, 16, 6, 2]",20,33,0,0.056,0.056,0.0,[],default,control,0,False,True,2,2,5,2,2180,implicit-mouselab,37,379128,default,9
mouselab,False,[],"[[10, 3], [3, 4], [4, 5], [4, 6], [3, 6]]","[[2, 2], [2, 2], [2, 2], [2, 2], [2, 2]]","[20, 1, 4, 2, 3]",28,34,0,0.079,0.079,0.0,[],default,default,0,True,True,2,2,5,2,1436,implicit-mouselab,38,382299,default,9
mouselab,True,"[0, 2, 1, 6, 11, 16, 21]","[[0, 4, 5, 5, 4], [4, 3, 5, 5, 8], [4, 7, 6, 3, 7], [8, 7, 8, 5, 2], [5, 3, 6, 6, 5]]","[[1, 1, 1, 2, 2], [2, 1, 2, 2, 2], [2, 1, 2, 2, 2], [2, 1, 2, 2, 2], [2, 1, 2, 2, 2]]","[12, 7, 3, 7, 1]",16,1,1,0.047,0.04466666666666667,0.0023333333333333335,[],default,control,2,False,False,5,5,5,2,10980,implicit-mouselab,4,158410,default,12
mouselab,True,"[0, 2]","[[2, 3], [3, 6]]","[[1, 2], [1, 2]]","[22, 8]",14,2,0,0.023,0.022333333333333334,0.0006666666666666666,[],default,control,1,False,False,2,2,2,2,3843,implicit-mouselab,5,163861,default,12
mouselab,False,[],"[[3, 4], [5, 4]]","[[2, 2], [2, 2]]","[27, 3]",24,3,0,0.032,0.032,0.0,[],default,default,0,True,True,2,2,2,2,3834,implicit-mouselab,7,170899,default,12
mouselab,False,[],"[[6, 6, 4, 5, 7], [5, 4, 4, 5, 3], [5, 5, 8, 3, 5], [7, 7, 5, 5, 5], [6, 6, 4, 9, 3]]","[[2, 2, 2, 2, 2], [2, 2, 2, 2, 2], [2, 2, 2, 2, 2], [2, 2, 2, 2, 2], [2, 2, 2, 2, 2]]","[5, 3, 6, 9, 7]",8,4,2,0.051,0.051,0.0,[],default,default,0,False,False,5,5,5,2,3717,implicit-mouselab,8,176105,default,12
mouselab,False,[],"[[3, 5, 6, 3, 8], [4, 5, 6, 10, 5]]","[[2, 2, 2, 2, 2], [2, 2, 2, 2, 2]]","[11, 19]",8,5,1,0.05,0.05,0.0,[],default,control,3,False,False,5,5,2,2,1663,implicit-mouselab,9,179501,default,12
mouselab,False,[],"[[6, 4, 3, 5, 6], [3, 4, 4, 8, 7], [4, 8, 6, 5, 5], [4, 4, 7, 2, 6], [5, 1, 4, 6, 7]]","[[2, 2, 2, 2, 2], [2, 2, 2, 2, 2], [2, 2, 2, 2, 2], [2, 2, 2, 2, 2], [2, 2, 2, 2, 2]]","[4, 3, 11, 9, 3]",16,6,4,0.058,0.058,0.0,[],default,default,4,True,True,5,5,5,2,3268,implicit-mouselab,10,184503,default,12
mouselab,False,[],"[[5, 6], [2, 5], [5, 5], [4, 7], [7, 3]]","[[2, 2], [2, 2], [2, 2], [2, 2], [2, 2]]","[3, 4, 9, 9, 5]",12,7,1,0.054,0.054,0.0,[],default,control,1,False,True,2,2,5,2,1436,implicit-mouselab,11,187477,default,12
mouselab,False,[],"[[8, 5, 7, 4, 5], [4, 5, 2, 7, 4]]","[[2, 2, 2, 2, 2], [2, 2, 2, 2, 2]]","[12, 18]",6,8,3,0.058,0.058,0.0,[],default,control,0,False,False,5,5,2,2,1546,implicit-mouselab,12,190414,default,12
mouselab,False,[],"[[5, 6], [5, 2], [7, 6], [7, 6], [2, 4]]","[[2, 2], [2, 2], [2, 2], [2, 2], [2, 2]]","[2, 1, 16, 2, 9]",26,9,1,0.053,0.053,0.0,[],default,control,0,False,False,2,2,5,2,1426,implicit-mouselab,13,193281,default,12
mouselab,False,[],"[[6, 6, 2, 9, 4], [7, 8, 3, 6, 6], [5, 5, 5, 5, 6], [5, 3, 6, 4, 3], [4, 3, 4, 7, 2]]","[[2, 2, 2, 2, 2], [2, 2, 2, 2, 2], [2, 2, 2, 2, 2], [2, 2, 2, 2, 2], [2, 2, 2, 2, 2]]","[4, 6, 11, 2, 7]",12,10,0,0.053,0.053,0.0,[],default,control,3,False,False,5,5,5,2,3003,implicit-mouselab,14,198019,default,12
mouselab,False,[],"[[5, 5, 1, 5, 7], [6, 5, 2, 5, 3]]","[[2, 2, 2, 2, 2], [2, 2, 2, 2, 2]]","[15, 15]",0,11,0,0.055,0.055,0.0,[],default,default,0,True,True,5,5,2,2,1908,implicit-mouselab,15,202100,default,12
mouselab,False,[],"[[2, 4, 3, 8, 4], [8, 5, 3, 8, 7], [4, 6, 2, 7, 4], [5, 4, 4, 7, 4], [2, 1, 5, 6, 5]]","[[2, 2, 2, 2, 2], [2, 2, 2, 2, 2], [2, 2, 2, 2, 2], [2, 2, 2, 2, 2], [2, 2, 2, 2, 2]]","[2, 7, 10, 5, 6]",10,12,3,0.071,0.071,0.0,[],default,default,3,True,True,5,5,5,2,2357,implicit-mouselab,16,206563,default,12
mouselab,False,[],"[[3, 2, 5, 5, 7], [4, 7, 6, 4, 1]]","[[2, 2, 2, 2, 2], [2, 2, 2, 2, 2]]","[6, 24]",18,13,2,0.058,0.058,0.0,[],default,control,2,False,True,5,5,2,2,1232,implicit-mouselab,17,210457,default,12
mouselab,False,[],"[[4, 5, 8, 6, 6], [6, 6, 3, 6, 5], [3, 5, 8, 3, 6], [6, 1, 6, 3, 7], [5, 4, 7, 7, 6]]","[[2, 2, 2, 2, 2], [2, 2, 2, 2, 2], [2, 2, 2, 2, 2], [2, 2, 2, 2, 2], [2, 2, 2, 2, 2]]","[9, 9, 8, 3, 1]",16,14,2,0.063,0.063,0.0,[],default,default,2,True,True,5,5,5,2,1596,implicit-mouselab,18,213913,default,12
mouselab,False,[],"[[5, 6], [5, 2], [3, 3], [3, 5], [4, 6]]","[[2, 2], [2, 2], [2, 2], [2, 2], [2, 2]]","[6, 9, 6, 5, 4]",6,15,1,0.04,0.04,0.0,[],default,default,1,True,True,2,2,5,2,2671,implicit-mouselab,19,218532,default,12
mouselab,False,[],"[[5, 4], [2, 5]]","[[2, 2], [2, 2]]","[11, 19]",8,16,0,0.031,0.031,0.0,[],default,default,1,False,False,2,2,2,2,2161,implicit-mouselab,20,222134,default,12
mouselab,False,[],"[[8, 6, 5, 6, 4], [5, 5, 6, 7, 6], [0, 6, 7, 8, 7], [3, 3, 4, 6, 5], [6, 3, 6, 3, 4]]","[[2, 2, 2, 2, 2], [2, 2, 2, 2, 2], [2, 2, 2, 2, 2], [2, 2, 2, 2, 2], [2, 2, 2, 2, 2]]","[1, 6, 5, 6, 12]",12,17,3,0.053,0.053,0.0,[],default,control,3,False,True,5,5,5,2,2004,implicit-mouselab,21,225501,default,12
mouselab,False,[],"[[4, 4, 5, 3, 5], [2, 2, 6, 5, 3]]","[[2, 2, 2, 2, 2], [2, 2, 2, 2, 2]]","[8, 22]",14,18,2,0.057,0.057,0.0,[],default,default,2,True,True,5,5,2,2,1613,implicit-mouselab,22,228711,default,12
mouselab,False,[],"[[8, 5, 4, 6, 4], [7, 3, 4, 7, 4], [5, 3, 4, 6, 1], [3, 1, 8, 5, 5], [6, 2, 5, 1, 4]]","[[2, 2, 2, 2, 2], [2, 2, 2, 2, 2], [2, 2, 2, 2, 2], [2, 2, 2, 2, 2], [2, 2, 2, 2, 2]]","[4, 5, 2, 10, 9]",14,19,3,0.043,0.043,0.0,[],default,control,0,False,False,5,5,5,2,1387,implicit-mouselab,23,233027,default,12
mouselab,False,[],"[[5, 4], [4, 5], [6, 6], [3, 7], [4, 2]]","[[2, 2], [2, 2], [2, 2], [2, 2], [2, 2]]","[6, 4, 9, 3, 8]",10,20,1,0.045,0.045,0.0,[],default,default,1,True,True,2,2,5,2,2239,implicit-mouselab,24,237206,default,12
mouselab,False,[],"[[5, 7], [5, 5]]","[[2, 2], [2, 2]]","[26, 4]",22,21,1,0.067,0.067,0.0,[],default,default,1,True,True,2,2,2,2,3032,implicit-mouselab,25,241698,default,12
mouselab,False,[],"[[3, 4, 4, 6, 8], [1, 4, 4, 6, 2], [3, 3, 5, 4, 5], [2, 4, 7, 6, 10], [3, 4, 3, 6, 6]]","[[2, 2, 2, 2, 2], [2, 2, 2, 2, 2], [2, 2, 2, 2, 2], [2, 2, 2, 2, 2], [2, 2, 2, 2, 2]]","[2, 4, 6, 12, 6]",12,22,2,0.052,0.052,0.0,[],default,control,4,False,False,5,5,5,2,1887,implicit-mouselab,26,244860,default,12
mouselab,False,[],"[[5, 5], [4, 4], [7, 7], [7, 2], [5, 4]]","[[2, 2], [2, 2], [2, 2], [2, 2], [2, 2]]","[7, 5, 2, 7, 9]",10,23,0,0.054,0.054,0.0,[],default,default,0,True,True,2,2,5,2,1574,implicit-mouselab,27,248011,default,12
mouselab,False,[],"[[4, 5], [5, 5]]","[[2, 2], [2, 2]]","[17, 13]",4,24,1,0.05,0.05,0.0,[],default,control,1,False,True,2,2,2,2,1426,implicit-mouselab,28,250683,default,12
mouselab,False,[],"[[3, 6], [5, 2], [3, 5], [7, 6], [4, 6]]","[[2, 2], [2, 2], [2, 2], [2, 2], [2, 2]]","[9, 7, 1, 6, 7]",10,25,0,0.045,0.045,0.0,[],default,control,1,False,False,2,2,5,2,1378,implicit-mouselab,29,253306,default,12
mouselab,False,[],"[[5, 3], [2, 7]]","[[2, 2], [2, 2]]","[2, 28]",26,26,1,0.067,0.067,0.0,[],default,control,1,False,True,2,2,2,2,1289,implicit-mouselab,30,256223,default,12
mouselab,False,[],"[[4, 8], [5, 4], [5, 5], [4, 5], [7, 6]]","[[2, 2], [2, 2], [2, 2], [2, 2], [2, 2]]","[4, 12, 7, 4, 3]",14,27,0,0.049,0.049,0.0,[],default,control,1,False,False,2,2,5,2,2288,implicit-mouselab,31,260509,default,12
mouselab,False,[],"[[7, 2], [4, 5]]","[[2, 2], [2, 2]]","[16, 14]",2,28,0,0.056,0.056,0.0,[],default,default,0,True,True,2,2,2,2,1535,implicit-mouselab,32,263534,default,12
mouselab,False,[],"[[4, 3, 7, 7, 5], [5, 7, 6, 7, 5]]","[[2, 2, 2, 2, 2], [2, 2, 2, 2, 2]]","[3, 27]",24,29,1,0.066,0.066,0.0,[],default,default,3,False,False,5,5,2,2,2484,implicit-mouselab,33,267165,default,12
mouselab,False,[],"[[5, 5], [3, 5], [2, 6], [4, 7], [9, 5]]","[[2, 2], [2, 2], [2, 2], [2, 2], [2, 2]]","[6, 3, 4, 12, 5]",12,30,1,0.059,0.059,0.0,[],default,default,1,True,True,2,2,5,2,1506,implicit-mouselab,34,270365,default,12
mouselab,False,[],"[[4, 6], [4, 7]]","[[2, 2], [2, 2]]","[24, 6]",18,31,1,0.062,0.062,0.0,[],default,control,1,False,True,2,2,2,2,1357,implicit-mouselab,35,272822,default,12
mouselab,False,[],"[[5, 3, 5, 6, 2], [4, 5, 5, 9, 8]]","[[2, 2, 2, 2, 2], [2, 2, 2, 2, 2]]","[20, 10]",10,32,3,0.07,0.07,0.0,[],default,default,3,True,True,5,5,2,2,1673,implicit-mouselab,36,276061,default,12
mouselab,False,[],"[[5, 6, 9, 4, 4], [2, 4, 9, 6, 7]]","[[2, 2, 2, 2, 2], [2, 2, 2, 2, 2]]","[16, 14]",2,33,2,0.09,0.09,0.0,[],default,control,2,False,True,5,5,2,2,1319,implicit-mouselab,37,278390,default,12
mouselab,False,[],"[[5, 8], [5, 3]]","[[2, 2], [2, 2]]","[8, 22]",14,34,0,0.05,0.05,0.0,[],default,control,1,False,False,2,2,2,2,1485,implicit-mouselab,38,280945,default,12
mouselab,True,"[2, 2, 16, 16, 16, 17, 12, 17, 12, 7, 7, 22, 22]","[[4, 2, 6, 5, 7], [7, 7, 3, 5, 6], [6, 5, 4, 3, 4], [7, 7, 6, 8, 3], [0, 7, 3, 4, 7]]","[[2, 2, 0, 2, 2], [2, 2, 0, 2, 2], [2, 2, 0, 2, 2], [2, 0, 0, 2, 2], [2, 2, 0, 2, 2]]","[12, 2, 6, 3, 7]",14,1,2,0.047,0.043,0.004,"[2, 16, 17, 12, 7, 22]",default,control,1,False,False,5,5,5,2,39096,implicit-mouselab,4,371022,default,13
mouselab,True,[],"[[2, 4], [7, 7]]","[[2, 2], [2, 2]]","[7, 23]",16,2,1,0.063,0.063,0.0,[],default,control,1,False,True,2,2,2,2,2846,implicit-mouselab,5,376599,default,13
mouselab,False,[],"[[4, 5, 6, 5, 6], [7, 4, 6, 4, 6]]","[[2, 2, 2, 2, 2], [2, 2, 2, 2, 2]]","[25, 5]",20,3,4,0.06,0.06,0.0,[],default,default,4,True,True,5,5,2,2,2773,implicit-mouselab,7,386240,default,13
mouselab,False,"[0, 0]","[[7, 3], [6, 5]]","[[0, 2], [2, 2]]","[18, 12]",6,4,1,0.038,0.03733333333333333,0.0006666666666666666,[0],default,control,0,False,False,2,2,2,2,5185,implicit-mouselab,8,394028,default,13
mouselab,False,[],"[[0, 6], [0, 6], [7, 5], [7, 5], [2, 5]]","[[2, 2], [2, 2], [2, 2], [2, 2], [2, 2]]","[9, 8, 4, 2, 7]",12,5,1,0.056,0.056,0.0,[],default,default,1,True,True,2,2,5,2,5539,implicit-mouselab,9,400957,default,13
mouselab,False,"[0, 0, 2, 2, 1, 1, 3, 3]","[[6, 4], [4, 1]]","[[0, 0], [0, 0]]","[14, 16]",2,6,0,0.049,0.04633333333333334,0.0026666666666666666,"[0, 2, 1, 3]",default,control,0,False,True,2,2,2,2,6112,implicit-mouselab,10,408686,default,13
mouselab,False,[],"[[5, 4], [7, 1]]","[[2, 2], [2, 2]]","[1, 29]",28,7,0,0.069,0.069,0.0,[],default,default,0,True,True,2,2,2,2,1876,implicit-mouselab,11,412201,default,13
mouselab,False,"[6, 6, 8, 8]","[[7, 7, 3, 3, 7], [5, 5, 2, 3, 3], [6, 5, 4, 6, 5], [9, 5, 5, 5, 6], [5, 1, 6, 5, 5]]","[[2, 2, 2, 2, 2], [2, 0, 2, 0, 2], [2, 2, 2, 2, 2], [2, 2, 2, 2, 2], [2, 2, 2, 2, 2]]","[5, 17, 2, 3, 3]",22,8,2,0.03,0.028666666666666667,0.0013333333333333333,"[6, 8]",default,control,0,False,False,5,5,5,2,6513,implicit-mouselab,12,420117,default,13
mouselab,False,"[6, 6, 8, 8, 7, 7]","[[4, 6, 3, 7, 4], [3, 6, 2, 7, 5]]","[[2, 2, 2, 2, 2], [2, 0, 0, 0, 2]]","[2, 28]",26,9,3,0.07,0.068,0.002,"[6, 8, 7]",default,control,3,False,True,5,5,2,2,5687,implicit-mouselab,13,427131,default,13
mouselab,False,[],"[[3, 5, 4, 6, 6], [6, 3, 6, 9, 3]]","[[2, 2, 2, 2, 2], [2, 2, 2, 2, 2]]","[20, 10]",10,10,3,0.07,0.07,0.0,[],default,default,3,True,True,5,5,2,2,1667,implicit-mouselab,14,430110,default,13
mouselab,False,[],"[[6, 5, 4, 7, 7], [6, 5, 6, 3, 9], [6, 2, 7, 4, 9], [5, 7, 7, 8, 5], [2, 5, 6, 5, 4]]","[[2, 2, 2, 2, 2], [2, 2, 2, 2, 2], [2, 2, 2, 2, 2], [2, 2, 2, 2, 2], [2, 2, 2, 2, 2]]","[4, 6, 10, 1, 9]",14,11,4,0.071,0.071,0.0,[],default,default,4,True,True,5,5,5,2,6441,implicit-mouselab,15,437773,default,13
mouselab,False,"[8, 8, 5, 5, 6, 6, 7, 7, 9, 9]","[[6, 4, 6, 4, 6], [3, 4, 7, 4, 6], [5, 3, 6, 3, 1], [8, 3, 10, 3, 6], [6, 6, 6, 6, 6]]","[[2, 2, 2, 2, 2], [0, 0, 0, 0, 0], [2, 2, 2, 2, 2], [2, 2, 2, 2, 2], [2, 2, 2, 2, 2]]","[6, 13, 5, 5, 1]",14,12,2,0.071,0.06766666666666667,0.0033333333333333335,"[8, 5, 6, 7, 9]",default,control,2,False,True,5,5,5,2,6941,implicit-mouselab,16,446197,default,13
mouselab,False,"[5, 5, 6, 6, 7, 7, 8, 8, 9, 9]","[[7, 7, 7, 7, 3], [5, 6, 3, 6, 6]]","[[2, 2, 2, 2, 2], [0, 0, 0, 0, 0]]","[13, 17]",4,13,3,0.064,0.06066666666666667,0.0033333333333333335,"[5, 6, 7, 8, 9]",default,control,1,False,False,5,5,2,2,6658,implicit-mouselab,17,454104,default,13
mouselab,False,"[9, 9]","[[5, 5, 7, 2, 6], [4, 5, 6, 5, 7]]","[[2, 2, 2, 2, 2], [2, 2, 2, 2, 0]]","[12, 18]",6,14,4,0.066,0.06533333333333334,0.0006666666666666666,[9],default,control,4,False,True,5,5,2,2,6401,implicit-mouselab,18,461465,default,13
mouselab,False,[],"[[6, 4, 3, 9, 4], [5, 6, 5, 6, 8]]","[[2, 2, 2, 2, 2], [2, 2, 2, 2, 2]]","[11, 19]",8,15,3,0.071,0.071,0.0,[],default,default,3,True,True,5,5,2,2,1320,implicit-mouselab,19,464078,default,13
mouselab,False,"[6, 6, 7, 7]","[[6, 6], [7, 7], [5, 5], [4, 2], [4, 3]]","[[2, 2], [2, 2], [2, 2], [0, 0], [2, 2]]","[6, 1, 4, 12, 7]",14,16,0,0.046,0.04466666666666667,0.0013333333333333333,"[6, 7]",default,control,0,False,True,2,2,5,2,3402,implicit-mouselab,20,468695,default,13
mouselab,False,[],"[[3, 4, 6, 5, 6], [4, 4, 7, 4, 8]]","[[2, 2, 2, 2, 2], [2, 2, 2, 2, 2]]","[12, 18]",6,17,4,0.072,0.072,0.0,[],default,default,4,True,True,5,5,2,2,1526,implicit-mouselab,21,471717,default,13
mouselab,False,[],"[[4, 5, 4, 5, 5], [6, 3, 5, 1, 4], [9, 4, 4, 6, 5], [6, 3, 6, 4, 8], [5, 5, 6, 4, 7]]","[[2, 2, 2, 2, 2], [2, 2, 2, 2, 2], [2, 2, 2, 2, 2], [2, 2, 2, 2, 2], [2, 2, 2, 2, 2]]","[1, 2, 7, 8, 12]",18,18,0,0.062,0.062,0.0,[],default,default,0,True,True,5,5,5,2,1250,implicit-mouselab,22,474216,default,13
mouselab,False,[],"[[1, 5, 9, 7, 6], [3, 6, 5, 4, 3], [5, 3, 5, 6, 7], [5, 6, 3, 7, 6], [5, 3, 1, 5, 4]]","[[2, 2, 2, 2, 2], [2, 2, 2, 2, 2], [2, 2, 2, 2, 2], [2, 2, 2, 2, 2], [2, 2, 2, 2, 2]]","[8, 7, 3, 7, 5]",8,19,3,0.059,0.059,0.0,[],default,default,3,True,True,5,5,5,2,1259,implicit-mouselab,23,476569,default,13
mouselab,False,"[10, 10, 11, 11, 12, 12, 13, 13]","[[6, 1, 5, 6, 6], [4, 8, 6, 3, 7], [5, 6, 4, 4, 5], [5, 7, 6, 6, 7], [6, 6, 4, 5, 6]]","[[2, 2, 2, 2, 2], [2, 2, 2, 2, 2], [0, 0, 0, 0, 2], [2, 2, 2, 2, 2], [2, 2, 2, 2, 2]]","[6, 6, 7, 4, 7]",4,20,1,0.055,0.052333333333333336,0.0026666666666666666,"[10, 11, 12, 13]",default,control,4,False,False,5,5,5,2,23421,implicit-mouselab,24,501701,default,13
mouselab,False,[],"[[5, 5, 6, 1, 2], [5, 6, 3, 9, 7], [7, 9, 6, 6, 4], [5, 4, 6, 5, 9], [7, 7, 1, 4, 3]]","[[2, 2, 2, 2, 2], [2, 2, 2, 2, 2], [2, 2, 2, 2, 2], [2, 2, 2, 2, 2], [2, 2, 2, 2, 2]]","[7, 11, 1, 7, 4]",14,21,1,0.055,0.055,0.0,[],default,default,1,True,True,5,5,5,2,4311,implicit-mouselab,25,506973,default,13
mouselab,False,[],"[[5, 6], [4, 3], [3, 3], [5, 6], [6, 7]]","[[2, 2], [2, 2], [2, 2], [2, 2], [2, 2]]","[8, 12, 2, 4, 4]",16,22,1,0.047,0.047,0.0,[],default,default,1,True,True,2,2,5,2,1107,implicit-mouselab,26,509096,default,13
mouselab,False,"[0, 0, 2, 2, 1, 1, 4, 4, 3, 3]","[[5, 4, 4, 4, 4], [6, 8, 5, 4, 2]]","[[0, 0, 0, 0, 0], [2, 2, 2, 2, 2]]","[25, 5]",20,23,0,0.052,0.048666666666666664,0.0033333333333333335,"[0, 2, 1, 4, 3]",default,control,1,False,False,5,5,2,2,6319,implicit-mouselab,27,516450,default,13
mouselab,False,"[15, 15, 17, 17, 18, 18]","[[8, 3, 7, 5, 4], [5, 5, 8, 8, 7], [4, 6, 4, 6, 5], [4, 5, 4, 6, 6], [5, 4, 4, 3, 8]]","[[2, 2, 2, 2, 2], [2, 2, 2, 2, 2], [2, 2, 2, 2, 2], [0, 2, 0, 0, 2], [2, 2, 2, 2, 2]]","[5, 3, 5, 9, 8]",10,24,3,0.052,0.049999999999999996,0.002,"[15, 17, 18]",default,control,4,False,False,5,5,5,2,4751,implicit-mouselab,28,522069,default,13
mouselab,False,[],"[[3, 6], [7, 4], [4, 2], [3, 4], [0, 4]]","[[2, 2], [2, 2], [2, 2], [2, 2], [2, 2]]","[11, 5, 4, 4, 6]",10,25,1,0.045,0.045,0.0,[],default,default,1,True,True,2,2,5,2,1336,implicit-mouselab,29,524656,default,13
mouselab,False,"[6, 6, 7, 7]","[[6, 7], [4, 5], [3, 5], [5, 6], [5, 6]]","[[2, 2], [2, 2], [2, 2], [0, 0], [2, 2]]","[6, 5, 5, 11, 3]",10,26,1,0.059,0.057666666666666665,0.0013333333333333333,"[6, 7]",default,control,1,False,True,2,2,5,2,4904,implicit-mouselab,30,530540,default,13
mouselab,False,[],"[[5, 4], [5, 1], [4, 4], [7, 8], [5, 3]]","[[2, 2], [2, 2], [2, 2], [2, 2], [2, 2]]","[7, 14, 2, 3, 4]",18,27,0,0.051,0.051,0.0,[],default,default,0,True,True,2,2,5,2,1267,implicit-mouselab,31,532743,default,13
mouselab,False,"[6, 6, 7, 7]","[[7, 4], [5, 5], [7, 5], [4, 5], [7, 6]]","[[2, 2], [2, 2], [2, 2], [0, 0], [2, 2]]","[4, 9, 3, 13, 1]",20,28,1,0.049,0.04766666666666667,0.0013333333333333333,"[6, 7]",default,control,0,False,False,2,2,5,2,4579,implicit-mouselab,32,542069,default,13
mouselab,False,[],"[[4, 2], [2, 4]]","[[2, 2], [2, 2]]","[24, 6]",18,29,0,0.036,0.036,0.0,[],default,default,0,True,True,2,2,2,2,1276,implicit-mouselab,33,545330,default,13
mouselab,False,"[2, 2, 3, 3]","[[4, 4], [2, 5]]","[[2, 2], [0, 0]]","[9, 21]",12,30,1,0.047,0.04566666666666667,0.0013333333333333333,"[2, 3]",default,control,1,False,True,2,2,2,2,4351,implicit-mouselab,34,550723,default,13
mouselab,False,"[4, 4, 5, 5]","[[4, 3], [5, 3], [5, 4], [8, 4], [3, 3]]","[[2, 2], [2, 2], [0, 0], [2, 2], [2, 2]]","[4, 4, 9, 4, 9]",12,31,0,0.047,0.04566666666666667,0.0013333333333333333,"[4, 5]",default,control,0,False,True,2,2,5,2,4599,implicit-mouselab,35,556242,default,13
mouselab,False,[],"[[6, 3], [4, 5]]","[[2, 2], [2, 2]]","[15, 15]",0,32,0,0.05,0.05,0.0,[],default,default,0,True,True,2,2,2,2,1884,implicit-mouselab,36,559038,default,13
mouselab,False,"[2, 2]","[[5, 2], [2, 7]]","[[2, 2], [0, 2]]","[4, 26]",22,33,1,0.063,0.06233333333333333,0.0006666666666666666,[2],default,control,1,False,True,2,2,2,2,2238,implicit-mouselab,37,562175,default,13
mouselab,False,[],"[[5, 3], [4, 2]]","[[2, 2], [2, 2]]","[6, 24]",18,34,0,0.042,0.042,0.0,[],default,default,0,True,True,2,2,2,2,1739,implicit-mouselab,38,566777,default,13
mouselab,True,"[2, 2, 3, 3]","[[4, 7], [7, 5], [6, 2], [2, 7], [5, 6]]","[[2, 2], [0, 0], [2, 2], [2, 2], [2, 2]]","[4, 17, 2, 5, 2]",22,1,0,0.056,0.05466666666666667,0.0013333333333333333,"[2, 3]",default,control,1,False,False,2,2,5,2,16394,implicit-mouselab,4,250052,default,15
mouselab,True,"[0, 1, 0, 1]","[[8, 3, 4, 4, 8], [7, 6, 5, 4, 5]]","[[0, 0, 2, 2, 2], [2, 2, 2, 2, 2]]","[17, 13]",4,2,0,0.076,0.07466666666666666,0.0013333333333333333,"[0, 1]",default,control,0,False,True,5,5,2,2,22282,implicit-mouselab,5,274325,default,15
mouselab,False,"[2, 2, 3, 3]","[[7, 2], [6, 5], [4, 4], [8, 2], [5, 6]]","[[2, 2], [0, 0], [2, 2], [2, 2], [2, 2]]","[7, 10, 4, 7, 2]",12,3,0,0.064,0.06266666666666666,0.0013333333333333333,"[2, 3]",default,control,0,False,True,2,2,5,2,5135,implicit-mouselab,7,284426,default,15
mouselab,False,"[0, 0, 1, 1]","[[9, 8, 5, 8, 2], [2, 4, 2, 6, 3]]","[[0, 0, 2, 2, 2], [2, 2, 2, 2, 2]]","[27, 3]",24,4,0,0.083,0.08166666666666667,0.0013333333333333333,"[0, 1]",default,control,3,False,False,5,5,2,2,4258,implicit-mouselab,8,290400,default,15
mouselab,False,"[0, 0, 1, 1]","[[4, 6], [5, 4]]","[[0, 0], [2, 2]]","[27, 3]",24,5,1,0.058,0.05666666666666667,0.0013333333333333333,"[0, 1]",default,default,1,False,True,2,2,2,2,10868,implicit-mouselab,9,302639,default,15
mouselab,False,"[20, 20, 21, 21, 22, 22, 23, 23, 24, 24, 9, 9, 8, 8]","[[6, 2, 7, 5, 6], [4, 1, 8, 3, 5], [6, 3, 6, 6, 7], [4, 3, 6, 5, 9], [1, 2, 3, 5, 5]]","[[2, 2, 2, 2, 2], [2, 2, 2, 0, 0], [2, 2, 2, 2, 2], [2, 2, 2, 2, 2], [0, 0, 0, 0, 0]]","[2, 10, 1, 3, 14]",24,6,4,0.055,0.050333333333333334,0.004666666666666667,"[20, 21, 22, 23, 24, 9, 8]",default,control,4,False,True,5,5,5,2,15244,implicit-mouselab,10,320509,default,15
mouselab,False,"[0, 0, 1, 1]","[[4, 5], [2, 5]]","[[0, 0], [2, 2]]","[24, 6]",18,7,1,0.05,0.04866666666666667,0.0013333333333333333,"[0, 1]",default,control,1,False,True,2,2,2,2,3360,implicit-mouselab,11,325056,default,15
mouselab,False,"[2, 2, 3, 3]","[[4, 4], [8, 5]]","[[2, 2], [0, 0]]","[13, 17]",4,8,0,0.063,0.06166666666666667,0.0013333333333333333,"[2, 3]",default,control,0,False,True,2,2,2,2,2653,implicit-mouselab,12,328843,default,15
mouselab,False,[],"[[4, 5], [7, 4]]","[[2, 2], [2, 2]]","[10, 20]",10,9,0,0.06,0.06,0.0,[],default,default,0,True,True,2,2,2,2,14300,implicit-mouselab,13,345573,default,15
mouselab,False,"[15, 15, 16, 16, 17, 17]","[[8, 2, 3, 6, 5], [6, 4, 6, 6, 5], [5, 5, 5, 7, 4], [6, 3, 5, 6, 4], [9, 3, 5, 3, 4]]","[[2, 2, 2, 2, 2], [2, 2, 2, 2, 2], [2, 2, 2, 2, 2], [0, 0, 0, 2, 2], [2, 2, 2, 2, 2]]","[3, 6, 6, 14, 1]",16,10,0,0.061,0.059,0.002,"[15, 16, 17]",default,default,0,False,True,5,5,5,2,11527,implicit-mouselab,14,358302,default,15
mouselab,False,"[0, 0]","[[7, 6, 2, 6, 2], [9, 8, 7, 3, 1], [5, 6, 4, 6, 4], [3, 1, 6, 4, 7], [4, 3, 5, 5, 5]]","[[0, 2, 2, 2, 2], [2, 2, 2, 2, 2], [2, 2, 2, 2, 2], [2, 2, 2, 2, 2], [2, 2, 2, 2, 2]]","[10, 7, 3, 2, 8]",14,11,0,0.062,0.06133333333333333,0.0006666666666666666,[0],default,control,0,False,True,5,5,5,2,4266,implicit-mouselab,15,363623,default,15
mouselab,False,[],"[[6, 4, 4, 3, 3], [3, 6, 6, 4, 6]]","[[2, 2, 2, 2, 2], [2, 2, 2, 2, 2]]","[15, 15]",0,12,1,0.05,0.05,0.0,[],default,default,1,True,True,5,5,2,2,3230,implicit-mouselab,16,368005,default,15
mouselab,False,"[6, 6, 7, 7]","[[5, 1], [5, 3], [3, 4], [6, 4], [5, 7]]","[[2, 2], [2, 2], [2, 2], [0, 0], [2, 2]]","[1, 7, 3, 10, 9]",16,13,0,0.051,0.049666666666666665,0.0013333333333333333,"[6, 7]",default,control,0,False,True,2,2,5,2,5074,implicit-mouselab,17,374246,default,15
mouselab,False,[],"[[7, 5, 5, 6, 7], [6, 4, 3, 7, 6]]","[[2, 2, 2, 2, 2], [2, 2, 2, 2, 2]]","[17, 13]",4,14,2,0.041,0.041,0.0,[],default,control,4,False,False,5,5,2,2,4784,implicit-mouselab,18,380100,default,15
mouselab,False,"[5, 5]","[[4, 5, 6, 3, 7], [7, 3, 4, 5, 5], [5, 4, 3, 5, 7], [4, 7, 6, 6, 6], [7, 4, 4, 4, 2]]","[[2, 2, 2, 2, 2], [0, 2, 2, 2, 2], [2, 2, 2, 2, 2], [2, 2, 2, 2, 2], [2, 2, 2, 2, 2]]","[3, 13, 3, 7, 4]",16,15,0,0.058,0.05733333333333333,0.0006666666666666666,[5],default,control,0,False,True,5,5,5,2,3618,implicit-mouselab,19,384825,default,15
mouselab,False,"[2, 2]","[[8, 7, 9, 7, 6], [4, 6, 5, 3, 5]]","[[2, 2, 0, 2, 2], [2, 2, 2, 2, 2]]","[25, 5]",20,16,2,0.083,0.08233333333333334,0.0006666666666666666,[2],default,default,2,False,True,5,5,2,2,5952,implicit-mouselab,20,391985,default,15
mouselab,False,"[15, 15, 16, 16, 17, 17]","[[4, 8, 5, 3, 6], [0, 4, 5, 3, 2], [4, 6, 8, 5, 6], [5, 3, 4, 4, 6], [7, 2, 8, 5, 4]]","[[2, 2, 2, 2, 2], [2, 2, 2, 2, 2], [2, 2, 2, 2, 2], [0, 0, 0, 2, 2], [2, 2, 2, 2, 2]]","[2, 3, 10, 13, 2]",22,17,0,0.042,0.04,0.002,"[15, 16, 17]",default,control,2,False,False,5,5,5,2,8719,implicit-mouselab,21,401775,default,15
mouselab,False,"[3, 3, 2, 2]","[[1, 7], [5, 6]]","[[2, 2], [0, 0]]","[4, 26]",22,18,1,0.061,0.059666666666666666,0.0013333333333333333,"[3, 2]",default,default,1,False,True,2,2,2,2,6839,implicit-mouselab,22,409739,default,15
mouselab,False,"[0, 0, 1, 1]","[[7, 5], [3, 6], [6, 5], [5, 4], [6, 8]]","[[0, 0], [2, 2], [2, 2], [2, 2], [2, 2]]","[13, 4, 4, 6, 3]",14,19,0,0.058,0.05666666666666667,0.0013333333333333333,"[0, 1]",default,default,1,False,False,2,2,5,2,6077,implicit-mouselab,23,417021,default,15
mouselab,False,[],"[[1, 5, 6, 4, 3], [5, 4, 8, 6, 2], [4, 4, 4, 6, 5], [3, 5, 4, 4, 2], [4, 6, 5, 7, 5]]","[[2, 2, 2, 2, 2], [2, 2, 2, 2, 2], [2, 2, 2, 2, 2], [2, 2, 2, 2, 2], [2, 2, 2, 2, 2]]","[3, 5, 10, 5, 7]",10,20,3,0.057,0.057,0.0,[],default,default,3,True,True,5,5,5,2,4611,implicit-mouselab,24,422798,default,15
mouselab,False,"[0, 0, 1, 1]","[[4, 3], [5, 7]]","[[0, 0], [2, 2]]","[23, 7]",16,21,0,0.042,0.04066666666666667,0.0013333333333333333,"[0, 1]",default,control,1,False,False,2,2,2,2,4592,implicit-mouselab,25,428515,default,15
mouselab,False,"[20, 20, 24, 24]","[[4, 5, 3, 7, 6], [5, 7, 5, 7, 5], [4, 6, 6, 5, 7], [6, 6, 7, 6, 5], [8, 3, 6, 4, 7]]","[[2, 2, 2, 2, 2], [2, 2, 2, 2, 2], [2, 2, 2, 2, 2], [2, 2, 2, 2, 2], [0, 2, 2, 2, 0]]","[2, 4, 2, 4, 18]",24,22,0,0.068,0.06666666666666667,0.0013333333333333333,"[20, 24]",default,default,4,False,False,5,5,5,2,6028,implicit-mouselab,26,435576,default,15
mouselab,False,"[6, 6, 8, 8]","[[6, 5, 6, 7, 4], [5, 5, 1, 4, 6]]","[[2, 2, 2, 2, 2], [2, 0, 2, 0, 2]]","[11, 19]",8,23,1,0.05,0.04866666666666667,0.0013333333333333333,"[6, 8]",default,control,0,False,False,5,5,2,2,5474,implicit-mouselab,27,442247,default,15
mouselab,False,"[4, 4, 5, 5]","[[5, 6], [3, 7], [8, 4], [2, 1], [4, 6]]","[[2, 2], [2, 2], [0, 0], [2, 2], [2, 2]]","[1, 3, 16, 7, 3]",22,24,0,0.056,0.05466666666666667,0.0013333333333333333,"[4, 5]",default,default,1,False,False,2,2,5,2,6256,implicit-mouselab,28,450344,default,15
mouselab,False,[],"[[6, 7, 5, 4, 4], [5, 5, 6, 4, 4]]","[[2, 2, 2, 2, 2], [2, 2, 2, 2, 2]]","[18, 12]",6,25,1,0.062,0.062,0.0,[],default,default,1,True,True,5,5,2,2,2795,implicit-mouselab,29,454417,default,15
mouselab,False,"[9, 9, 7, 7]","[[7, 4, 6, 6, 6], [6, 3, 8, 5, 5], [6, 6, 3, 6, 6], [3, 4, 3, 7, 5], [7, 6, 7, 6, 10]]","[[2, 2, 2, 2, 2], [2, 2, 0, 2, 0], [2, 2, 2, 2, 2], [2, 2, 2, 2, 2], [2, 2, 2, 2, 2]]","[6, 12, 2, 5, 5]",12,26,2,0.063,0.06166666666666667,0.0013333333333333333,"[9, 7]",default,default,4,False,False,5,5,5,2,11786,implicit-mouselab,30,467890,default,15
mouselab,False,"[3, 3, 1, 1]","[[4, 2, 5, 6, 2], [6, 6, 6, 7, 8]]","[[2, 0, 2, 0, 2], [2, 2, 2, 2, 2]]","[26, 4]",22,27,3,0.061,0.059666666666666666,0.0013333333333333333,"[3, 1]",default,default,3,False,True,5,5,2,2,7055,implicit-mouselab,31,475923,default,15
mouselab,False,"[2, 2, 3, 3]","[[5, 4], [4, 2]]","[[2, 2], [0, 0]]","[10, 20]",10,28,0,0.043,0.041666666666666664,0.0013333333333333333,"[2, 3]",default,control,0,False,True,2,2,2,2,3994,implicit-mouselab,32,480833,default,15
mouselab,False,[],"[[7, 5], [8, 8], [4, 7], [7, 6], [5, 4]]","[[2, 2], [2, 2], [2, 2], [2, 2], [2, 2]]","[10, 2, 2, 10, 6]",16,29,0,0.065,0.065,0.0,[],default,default,0,True,True,2,2,5,2,5873,implicit-mouselab,33,488431,default,15
mouselab,False,"[3, 3]","[[5, 6], [6, 7]]","[[2, 2], [2, 0]]","[9, 21]",12,30,1,0.067,0.06633333333333334,0.0006666666666666666,[3],default,default,1,False,True,2,2,2,2,4618,implicit-mouselab,34,494430,default,15
mouselab,False,[],"[[4, 7], [3, 5], [7, 5], [8, 4], [5, 5]]","[[2, 2], [2, 2], [2, 2], [2, 2], [2, 2]]","[7, 6, 8, 3, 6]",6,31,0,0.052,0.052,0.0,[],default,default,0,True,True,2,2,5,2,4156,implicit-mouselab,35,499847,default,15
mouselab,False,"[5, 5]","[[6, 4, 5, 6, 5], [7, 5, 3, 7, 4]]","[[2, 2, 2, 2, 2], [0, 2, 2, 2, 2]]","[13, 17]",4,32,0,0.066,0.06533333333333334,0.0006666666666666666,[5],default,control,3,False,False,5,5,2,2,4765,implicit-mouselab,36,505646,default,15
mouselab,False,"[9, 9]","[[4, 6], [6, 3], [2, 1], [5, 6], [6, 6]]","[[2, 2], [2, 2], [2, 2], [2, 2], [2, 0]]","[7, 8, 1, 3, 11]",16,33,1,0.05,0.04933333333333333,0.0006666666666666666,[9],default,control,0,False,False,2,2,5,2,6390,implicit-mouselab,37,513199,default,15
mouselab,False,"[0, 0]","[[8, 4], [3, 3], [3, 7], [6, 7], [3, 1]]","[[0, 2], [2, 2], [2, 2], [2, 2], [2, 2]]","[13, 4, 6, 2, 5]",14,34,0,0.054,0.05333333333333333,0.0006666666666666666,[0],default,control,0,False,True,2,2,5,2,3648,implicit-mouselab,38,518180,default,15
mouselab,True,"[0, 0, 5, 5, 3, 3, 8, 8, 1, 6, 2, 7, 4, 9, 1, 6, 2, 7, 4, 9]","[[5, 6, 4, 4, 4], [2, 6, 6, 5, 6]]","[[0, 0, 0, 0, 0], [0, 0, 0, 0, 0]]","[20, 10]",10,1,1,0.06,0.05333333333333333,0.006666666666666667,"[0, 5, 3, 8, 1, 6, 2, 7, 4, 9]",default,control,1,False,True,5,5,2,2,42219,implicit-mouselab,4,186101,default,16
mouselab,True,"[2, 2, 6, 6, 9, 9]","[[6, 3], [2, 7], [4, 7], [5, 1], [3, 7]]","[[2, 2], [0, 2], [2, 2], [0, 2], [2, 0]]","[1, 13, 3, 8, 5]",18,2,1,0.053,0.051,0.002,"[2, 6, 9]",default,control,1,False,True,2,2,5,2,14432,implicit-mouselab,5,201845,default,16
mouselab,False,"[5, 5, 0, 0]","[[7, 5, 4, 6, 5], [7, 7, 7, 6, 4]]","[[0, 2, 2, 2, 2], [0, 2, 2, 2, 2]]","[7, 23]",16,3,0,0.07,0.06866666666666667,0.0013333333333333333,"[5, 0]",default,default,0,False,True,5,5,2,2,18507,implicit-mouselab,7,223346,default,16
mouselab,False,"[2, 2, 7, 7]","[[5, 5], [2, 4], [4, 7], [6, 5], [6, 3]]","[[2, 2], [0, 2], [2, 2], [2, 0], [2, 2]]","[6, 9, 4, 8, 3]",10,4,1,0.048,0.04666666666666667,0.0013333333333333333,"[2, 7]",default,control,1,False,True,2,2,5,2,5470,implicit-mouselab,8,230116,default,16
mouselab,False,"[2, 2, 5, 5, 0, 0, 7, 7]","[[4, 5, 5, 3, 4], [6, 5, 6, 4, 2]]","[[0, 2, 0, 2, 2], [0, 2, 0, 2, 2]]","[24, 6]",18,5,2,0.052,0.04933333333333333,0.0026666666666666666,"[2, 5, 0, 7]",default,default,2,False,True,5,5,2,2,11506,implicit-mouselab,9,242444,default,16
mouselab,False,"[23, 23, 20, 20, 3, 3]","[[3, 7, 2, 3, 3], [2, 4, 6, 4, 4], [7, 4, 5, 9, 3], [0, 5, 8, 6, 5], [3, 2, 2, 6, 5]]","[[2, 2, 2, 0, 2], [2, 2, 2, 2, 2], [2, 2, 2, 2, 2], [2, 2, 2, 2, 2], [0, 2, 2, 0, 2]]","[9, 5, 2, 2, 12]",18,6,3,0.05,0.048,0.002,"[23, 20, 3]",default,default,3,False,True,5,5,5,2,9783,implicit-mouselab,10,253195,default,16
mouselab,False,[],"[[3, 6], [8, 4]]","[[2, 2], [2, 2]]","[15, 15]",0,7,0,0.055,0.055,0.0,[],default,default,0,True,True,2,2,2,2,2712,implicit-mouselab,11,256999,default,16
mouselab,False,"[5, 5, 1, 1]","[[4, 6, 3, 1, 7], [7, 4, 7, 4, 7]]","[[2, 0, 2, 2, 2], [0, 2, 2, 2, 2]]","[6, 24]",18,8,0,0.064,0.06266666666666666,0.0013333333333333333,"[5, 1]",default,control,4,False,False,5,5,2,2,7318,implicit-mouselab,12,265111,default,16
mouselab,False,"[4, 4, 9, 9, 1, 1]","[[7, 7], [9, 6], [7, 5], [4, 9], [5, 7]]","[[2, 0], [2, 2], [0, 2], [2, 2], [2, 0]]","[5, 1, 10, 2, 12]",20,9,1,0.064,0.062,0.002,"[4, 9, 1]",default,control,1,False,True,2,2,5,2,6627,implicit-mouselab,13,272767,default,16
mouselab,False,"[0, 0, 20, 20]","[[2, 1, 4, 5, 4], [2, 5, 2, 3, 5], [4, 5, 3, 6, 6], [5, 5, 6, 6, 6], [7, 5, 3, 2, 5]]","[[0, 2, 2, 2, 2], [2, 2, 2, 2, 2], [2, 2, 2, 2, 2], [2, 2, 2, 2, 2], [0, 2, 2, 2, 2]]","[14, 5, 2, 2, 7]",18,10,0,0.035,0.03366666666666667,0.0013333333333333333,"[0, 20]",default,control,4,False,False,5,5,5,2,5435,implicit-mouselab,14,279626,default,16
mouselab,False,"[2, 2, 9, 9, 5, 5]","[[4, 5], [5, 5], [7, 8], [8, 5], [3, 6]]","[[2, 2], [0, 2], [2, 0], [2, 2], [2, 0]]","[5, 12, 7, 2, 4]",14,11,1,0.058,0.056,0.002,"[2, 9, 5]",default,control,1,False,True,2,2,5,2,5548,implicit-mouselab,15,285934,default,16
mouselab,False,"[0, 0, 5, 5]","[[5, 3, 8, 4, 5], [4, 5, 6, 5, 9]]","[[0, 2, 2, 2, 2], [0, 2, 2, 2, 2]]","[12, 18]",6,12,0,0.044,0.042666666666666665,0.0013333333333333333,"[0, 5]",default,control,4,False,False,5,5,2,2,7961,implicit-mouselab,16,295841,default,16
mouselab,False,"[5, 5, 1, 1, 7, 7, 3, 3]","[[3, 5, 9, 7, 3], [3, 5, 4, 6, 5]]","[[2, 0, 2, 0, 2], [0, 2, 0, 2, 2]]","[5, 25]",20,13,3,0.062,0.059333333333333335,0.0026666666666666666,"[5, 1, 7, 3]",default,control,2,False,False,5,5,2,2,8790,implicit-mouselab,17,305508,default,16
mouselab,False,[],"[[7, 5], [5, 6], [9, 7], [6, 5], [2, 6]]","[[2, 2], [2, 2], [2, 2], [2, 2], [2, 2]]","[4, 4, 12, 9, 1]",18,14,0,0.071,0.071,0.0,[],default,default,0,True,True,2,2,5,2,1760,implicit-mouselab,18,308567,default,16
mouselab,False,"[15, 15, 11, 11]","[[1, 9, 5, 7, 5], [8, 6, 2, 5, 8], [8, 2, 6, 5, 4], [7, 3, 5, 5, 5], [4, 4, 2, 6, 6]]","[[2, 2, 2, 2, 2], [2, 2, 2, 2, 2], [2, 0, 2, 2, 2], [0, 2, 2, 2, 2], [2, 2, 2, 2, 2]]","[3, 3, 4, 16, 4]",20,15,0,0.062,0.06066666666666667,0.0013333333333333333,"[15, 11]",default,control,4,False,False,5,5,5,2,5344,implicit-mouselab,19,314922,default,16
mouselab,False,"[2, 2]","[[9, 4], [6, 4]]","[[2, 2], [0, 2]]","[2, 28]",26,16,0,0.062,0.06133333333333333,0.0006666666666666666,[2],default,control,0,False,True,2,2,2,2,2184,implicit-mouselab,20,318059,default,16
mouselab,False,[],"[[5, 8], [2, 6]]","[[2, 2], [2, 2]]","[4, 26]",22,17,1,0.063,0.063,0.0,[],default,default,1,True,True,2,2,2,2,1658,implicit-mouselab,21,321065,default,16
mouselab,False,[],"[[6, 6], [3, 4]]","[[2, 2], [2, 2]]","[12, 18]",6,18,1,0.048,0.048,0.0,[],default,default,1,True,True,2,2,2,2,920,implicit-mouselab,22,322613,default,16
mouselab,False,"[2, 2, 1, 1]","[[2, 3], [5, 5]]","[[2, 0], [0, 2]]","[10, 20]",10,19,0,0.04,0.03866666666666667,0.0013333333333333333,"[2, 1]",default,control,1,False,False,2,2,2,2,3887,implicit-mouselab,23,327173,default,16
mouselab,False,"[0, 0, 6, 6, 12, 12]","[[2, 6, 4, 4, 6], [3, 5, 9, 2, 2], [5, 4, 6, 5, 5], [7, 8, 6, 4, 2], [6, 4, 8, 5, 5]]","[[0, 2, 2, 2, 2], [2, 0, 2, 2, 2], [2, 2, 0, 2, 2], [2, 2, 2, 2, 2], [2, 2, 2, 2, 2]]","[11, 2, 8, 3, 6]",14,20,2,0.059,0.056999999999999995,0.002,"[0, 6, 12]",default,control,2,False,True,5,5,5,2,7220,implicit-mouselab,24,335368,default,16
mouselab,False,[],"[[6, 7, 2, 6, 3], [4, 5, 6, 7, 5], [5, 4, 5, 9, 2], [3, 2, 6, 5, 6], [4, 1, 5, 6, 6]]","[[2, 2, 2, 2, 2], [2, 2, 2, 2, 2], [2, 2, 2, 2, 2], [2, 2, 2, 2, 2], [2, 2, 2, 2, 2]]","[3, 12, 2, 9, 4]",18,21,3,0.063,0.063,0.0,[],default,default,3,True,True,5,5,5,2,1284,implicit-mouselab,25,337623,default,16
mouselab,False,[],"[[5, 4, 7, 5, 6], [7, 4, 3, 9, 4], [5, 6, 5, 6, 7], [5, 6, 5, 3, 8], [5, 3, 7, 7, 6]]","[[2, 2, 2, 2, 2], [2, 2, 2, 2, 2], [2, 2, 2, 2, 2], [2, 2, 2, 2, 2], [2, 2, 2, 2, 2]]","[16, 4, 2, 4, 4]",20,22,4,0.061,0.061,0.0,[],default,default,4,True,True,5,5,5,2,1195,implicit-mouselab,26,339813,default,16
mouselab,False,[],"[[3, 7], [6, 7]]","[[2, 2], [2, 2]]","[25, 5]",20,23,1,0.07,0.07,0.0,[],default,default,1,True,True,2,2,2,2,1249,implicit-mouselab,27,341808,default,16
mouselab,False,[],"[[7, 6], [5, 4], [3, 6], [5, 7], [5, 5]]","[[2, 2], [2, 2], [2, 2], [2, 2], [2, 2]]","[8, 9, 9, 3, 1]",16,24,1,0.055,0.055,0.0,[],default,default,1,True,True,2,2,5,2,844,implicit-mouselab,28,343488,default,16
mouselab,False,"[2, 2]","[[2, 5], [8, 4]]","[[2, 2], [0, 2]]","[16, 14]",2,25,0,0.048,0.04733333333333333,0.0006666666666666666,[2],default,control,0,False,True,2,2,2,2,2541,implicit-mouselab,29,346767,default,16
mouselab,False,[],"[[3, 4], [5, 2], [2, 6], [4, 2], [4, 8]]","[[2, 2], [2, 2], [2, 2], [2, 2], [2, 2]]","[5, 4, 15, 4, 2]",18,26,1,0.047,0.047,0.0,[],default,default,1,True,True,2,2,5,2,1102,implicit-mouselab,30,348656,default,16
mouselab,False,[],"[[3, 7, 5, 6, 5], [7, 5, 4, 7, 3], [6, 4, 4, 5, 3], [4, 7, 5, 5, 2], [4, 7, 5, 2, 8]]","[[2, 2, 2, 2, 2], [2, 2, 2, 2, 2], [2, 2, 2, 2, 2], [2, 2, 2, 2, 2], [2, 2, 2, 2, 2]]","[3, 11, 9, 3, 4]",16,27,1,0.054,0.054,0.0,[],default,default,1,True,True,5,5,5,2,1087,implicit-mouselab,31,350502,default,16
mouselab,False,[],"[[4, 2], [6, 6], [5, 3], [7, 4], [4, 5]]","[[2, 2], [2, 2], [2, 2], [2, 2], [2, 2]]","[19, 1, 3, 4, 3]",26,28,0,0.046,0.046,0.0,[],default,default,0,True,True,2,2,5,2,916,implicit-mouselab,32,352436,default,16
mouselab,False,"[10, 10]","[[7, 8, 5, 8, 5], [7, 5, 5, 5, 6], [8, 6, 4, 6, 4], [6, 6, 4, 7, 4], [7, 3, 5, 6, 5]]","[[2, 2, 2, 2, 2], [2, 2, 2, 2, 2], [0, 2, 2, 2, 2], [2, 2, 2, 2, 2], [2, 2, 2, 2, 2]]","[3, 7, 10, 2, 8]",14,29,0,0.073,0.07233333333333333,0.0006666666666666666,[10],default,control,0,False,True,5,5,5,2,3192,implicit-mouselab,33,356481,default,16
mouselab,False,[],"[[4, 4, 2, 3, 5], [7, 4, 4, 5, 7]]","[[2, 2, 2, 2, 2], [2, 2, 2, 2, 2]]","[15, 15]",0,30,4,0.06,0.06,0.0,[],default,default,4,True,True,5,5,2,2,1060,implicit-mouselab,34,358120,default,16
mouselab,False,"[0, 0, 6, 6, 2, 2]","[[4, 7, 7, 4, 5], [2, 5, 7, 4, 3]]","[[0, 2, 0, 2, 2], [2, 0, 2, 2, 2]]","[17, 13]",4,31,2,0.07,0.068,0.002,"[0, 6, 2]",default,control,2,False,True,5,5,2,2,4583,implicit-mouselab,35,363458,default,16
mouselab,False,"[8, 8, 7, 7, 4, 4]","[[8, 6], [6, 4], [7, 5], [5, 6], [4, 5]]","[[2, 2], [2, 2], [0, 2], [2, 0], [0, 2]]","[4, 3, 6, 5, 12]",12,32,0,0.055,0.053,0.002,"[8, 7, 4]",default,control,0,False,True,2,2,5,2,5519,implicit-mouselab,36,369663,default,16
mouselab,False,[],"[[3, 7, 6, 4, 6], [7, 6, 5, 4, 5]]","[[2, 2, 2, 2, 2], [2, 2, 2, 2, 2]]","[2, 28]",26,33,1,0.061,0.061,0.0,[],default,default,1,True,True,5,5,2,2,1090,implicit-mouselab,37,371349,default,16
mouselab,False,"[0, 0]","[[6, 5], [5, 7]]","[[0, 2], [2, 2]]","[22, 8]",14,34,0,0.057,0.05633333333333333,0.0006666666666666666,[0],default,control,1,False,False,2,2,2,2,2112,implicit-mouselab,38,374123,default,16
mouselab,True,"[5, 8, 7, 9]","[[5, 2], [7, 3], [4, 3], [5, 7], [4, 2]]","[[2, 2], [2, 2], [2, 1], [2, 1], [1, 1]]","[1, 2, 12, 3, 12]",24,1,0,0.043,0.041666666666666664,0.0013333333333333333,[],default,control,0,False,True,2,2,5,2,31869,implicit-mouselab,4,197333,default,17
mouselab,True,"[4, 2]","[[5, 8, 7, 7, 6], [2, 6, 3, 8, 6]]","[[2, 2, 1, 2, 1], [2, 2, 2, 2, 2]]","[27, 3]",24,2,2,0.066,0.06533333333333334,0.0006666666666666666,[],default,control,3,False,False,5,5,2,2,11453,implicit-mouselab,5,212432,default,17
mouselab,False,[],"[[4, 3], [5, 6]]","[[2, 2], [2, 2]]","[1, 29]",28,3,0,0.05,0.05,0.0,[],default,default,0,True,True,2,2,2,2,2456,implicit-mouselab,7,219076,default,17
mouselab,False,[],"[[5, 4, 5, 3, 6], [4, 5, 3, 6, 6], [5, 3, 4, 7, 5], [6, 2, 6, 7, 9], [8, 5, 5, 4, 4]]","[[2, 2, 2, 2, 2], [2, 2, 2, 2, 2], [2, 2, 2, 2, 2], [2, 2, 2, 2, 2], [2, 2, 2, 2, 2]]","[12, 3, 1, 5, 9]",18,4,4,0.059,0.059,0.0,[],default,default,4,True,True,5,5,5,2,3057,implicit-mouselab,8,223749,default,17
mouselab,False,[5],"[[6, 4], [6, 6], [8, 4], [1, 7], [5, 5]]","[[2, 2], [2, 2], [2, 1], [2, 2], [2, 2]]","[4, 4, 12, 2, 8]",16,5,1,0.047,0.04666666666666667,0.0003333333333333333,[],default,control,1,False,True,2,2,5,2,6816,implicit-mouselab,9,233750,default,17
mouselab,False,"[9, 9]","[[5, 4, 5, 2, 5], [4, 5, 5, 8, 3], [6, 3, 5, 3, 6], [3, 7, 4, 5, 5], [6, 3, 10, 6, 2]]","[[2, 2, 2, 2, 2], [2, 2, 2, 2, 0], [2, 2, 2, 2, 2], [2, 2, 2, 2, 2], [2, 2, 2, 2, 2]]","[2, 20, 5, 2, 1]",28,6,3,0.065,0.06433333333333334,0.0006666666666666666,[9],default,control,2,False,False,5,5,5,2,14584,implicit-mouselab,10,251301,default,17
mouselab,False,[],"[[5, 5, 6, 6, 6], [6, 7, 7, 3, 3]]","[[2, 2, 2, 2, 2], [2, 2, 2, 2, 2]]","[28, 2]",26,7,2,0.061,0.061,0.0,[],default,default,2,True,True,5,5,2,2,1836,implicit-mouselab,11,254793,default,17
mouselab,False,"[4, 4, 9, 9]","[[5, 5, 2, 3, 5], [5, 4, 4, 7, 6]]","[[2, 2, 2, 2, 0], [2, 2, 2, 2, 0]]","[15, 15]",0,8,4,0.055,0.05366666666666667,0.0013333333333333333,"[4, 9]",default,control,4,False,True,5,5,2,2,9090,implicit-mouselab,12,265617,default,17
mouselab,False,[],"[[5, 6], [5, 3]]","[[2, 2], [2, 2]]","[6, 24]",18,9,0,0.05,0.05,0.0,[],default,default,0,True,True,2,2,2,2,1559,implicit-mouselab,13,268535,default,17
mouselab,False,"[3, 3, 1, 1]","[[4, 5, 2, 4, 5], [5, 4, 6, 5, 6]]","[[2, 0, 2, 0, 2], [2, 2, 2, 2, 2]]","[17, 13]",4,10,1,0.046,0.04466666666666667,0.0013333333333333333,"[3, 1]",default,control,4,False,False,5,5,2,2,7257,implicit-mouselab,14,277257,default,17
mouselab,False,[],"[[1, 4], [6, 5], [6, 4], [6, 3], [3, 3]]","[[2, 2], [2, 2], [2, 2], [2, 2], [2, 2]]","[9, 13, 1, 5, 2]",20,11,0,0.043,0.043,0.0,[],default,default,0,True,True,2,2,5,2,1491,implicit-mouselab,15,280251,default,17
mouselab,False,"[3, 3]","[[3, 3], [1, 5]]","[[2, 2], [2, 0]]","[3, 27]",24,12,1,0.048,0.04733333333333333,0.0006666666666666666,[3],default,control,1,False,True,2,2,2,2,4528,implicit-mouselab,16,286802,default,17
mouselab,False,[],"[[6, 3], [7, 6]]","[[2, 2], [2, 2]]","[9, 21]",12,13,0,0.067,0.067,0.0,[],default,control,0,False,True,2,2,2,2,2394,implicit-mouselab,17,290455,default,17
mouselab,False,"[7, 7, 9, 9, 8, 8]","[[3, 6, 4, 4, 4], [4, 3, 5, 6, 7], [7, 4, 0, 6, 4], [7, 2, 4, 4, 5], [9, 6, 5, 7, 4]]","[[2, 2, 2, 2, 2], [2, 2, 0, 0, 0], [2, 2, 2, 2, 2], [2, 2, 2, 2, 2], [2, 2, 2, 2, 2]]","[3, 14, 3, 2, 8]",20,14,4,0.055,0.053,0.002,"[7, 9, 8]",default,control,0,False,False,5,5,5,2,11519,implicit-mouselab,18,304584,default,17
mouselab,False,"[8, 8, 9, 9]","[[5, 6], [9, 8], [4, 8], [4, 5], [5, 5]]","[[2, 2], [2, 2], [2, 2], [2, 2], [0, 0]]","[8, 3, 5, 2, 12]",16,15,0,0.052,0.050666666666666665,0.0013333333333333333,"[8, 9]",default,control,1,False,False,2,2,5,2,8948,implicit-mouselab,19,315035,default,17
mouselab,False,"[6, 6, 8, 8]","[[5, 5, 2, 1, 4], [4, 2, 7, 7, 8], [6, 5, 8, 4, 7], [4, 5, 4, 6, 3], [6, 4, 4, 5, 2]]","[[2, 2, 2, 2, 2], [2, 0, 2, 0, 2], [2, 2, 2, 2, 2], [2, 2, 2, 2, 2], [2, 2, 2, 2, 2]]","[6, 10, 9, 4, 1]",14,16,3,0.047,0.04566666666666667,0.0013333333333333333,"[6, 8]",default,control,0,False,False,5,5,5,2,5377,implicit-mouselab,20,322165,default,17
mouselab,False,"[0, 0, 3, 3, 2, 2, 4, 4]","[[2, 6, 3, 5, 3], [7, 7, 5, 4, 6]]","[[0, 2, 0, 0, 0], [2, 2, 2, 2, 2]]","[29, 1]",28,17,3,0.05,0.04733333333333334,0.0026666666666666666,"[0, 3, 2, 4]",default,control,1,False,False,5,5,2,2,7709,implicit-mouselab,21,331306,default,17
mouselab,False,"[2, 2, 3, 3]","[[6, 5], [7, 5]]","[[2, 2], [0, 0]]","[10, 20]",10,18,0,0.067,0.06566666666666666,0.0013333333333333333,"[2, 3]",default,control,0,False,True,2,2,2,2,4361,implicit-mouselab,22,336679,default,17
mouselab,False,[],"[[6, 2], [6, 3]]","[[2, 2], [2, 2]]","[24, 6]",18,19,0,0.06,0.06,0.0,[],default,default,0,True,True,2,2,2,2,1278,implicit-mouselab,23,339144,default,17
mouselab,False,"[0, 0, 1, 1]","[[6, 6], [1, 6]]","[[0, 0], [2, 2]]","[20, 10]",10,20,0,0.043,0.041666666666666664,0.0013333333333333333,"[0, 1]",default,control,1,False,False,2,2,2,2,4584,implicit-mouselab,24,344678,default,17
mouselab,False,[],"[[7, 5, 7, 2, 9], [5, 3, 6, 3, 6]]","[[2, 2, 2, 2, 2], [2, 2, 2, 2, 2]]","[7, 23]",16,21,4,0.067,0.067,0.0,[],default,default,4,True,True,5,5,2,2,1680,implicit-mouselab,25,347680,default,17
mouselab,False,[],"[[4, 6], [6, 5], [3, 6], [4, 5], [6, 2]]","[[2, 2], [2, 2], [2, 2], [2, 2], [2, 2]]","[5, 2, 3, 4, 16]",20,22,1,0.037,0.037,0.0,[],default,default,1,True,True,2,2,5,2,1920,implicit-mouselab,26,351470,default,17
mouselab,False,[],"[[4, 8], [4, 7]]","[[2, 2], [2, 2]]","[14, 16]",2,23,1,0.075,0.075,0.0,[],default,default,1,True,True,2,2,2,2,1391,implicit-mouselab,27,354019,default,17
mouselab,False,"[5, 5, 7, 7, 6, 6, 8, 8, 9, 9]","[[6, 4, 6, 5, 5], [4, 4, 7, 5, 4], [3, 5, 8, 4, 6], [6, 4, 6, 6, 3], [5, 5, 8, 4, 4]]","[[2, 2, 2, 2, 2], [0, 0, 0, 0, 0], [2, 2, 2, 2, 2], [2, 2, 2, 2, 2], [2, 2, 2, 2, 2]]","[3, 17, 5, 4, 1]",22,24,2,0.07,0.06666666666666668,0.0033333333333333335,"[5, 7, 6, 8, 9]",default,control,2,False,True,5,5,5,2,8416,implicit-mouselab,28,364072,default,17
mouselab,False,[],"[[1, 5, 3, 4, 6], [1, 5, 4, 8, 8]]","[[2, 2, 2, 2, 2], [2, 2, 2, 2, 2]]","[8, 22]",14,25,4,0.075,0.075,0.0,[],default,default,4,True,True,5,5,2,2,1591,implicit-mouselab,29,366901,default,17
mouselab,False,[],"[[5, 3, 4, 5, 5], [5, 4, 5, 5, 6], [6, 5, 3, 8, 5], [4, 8, 7, 5, 6], [4, 5, 8, 5, 7]]","[[2, 2, 2, 2, 2], [2, 2, 2, 2, 2], [2, 2, 2, 2, 2], [2, 2, 2, 2, 2], [2, 2, 2, 2, 2]]","[1, 10, 12, 5, 2]",20,26,4,0.056,0.056,0.0,[],default,default,4,True,True,5,5,5,2,2014,implicit-mouselab,30,370748,default,17
mouselab,False,[],"[[6, 4, 6, 5, 5], [5, 6, 4, 7, 7], [3, 7, 6, 3, 6], [6, 4, 1, 3, 4], [6, 3, 6, 6, 4]]","[[2, 2, 2, 2, 2], [2, 2, 2, 2, 2], [2, 2, 2, 2, 2], [2, 2, 2, 2, 2], [2, 2, 2, 2, 2]]","[2, 18, 4, 3, 3]",24,27,4,0.061,0.061,0.0,[],default,default,4,True,True,5,5,5,2,1265,implicit-mouselab,31,373237,default,17
mouselab,False,[],"[[8, 5, 7, 5, 5], [4, 6, 8, 5, 4]]","[[2, 2, 2, 2, 2], [2, 2, 2, 2, 2]]","[8, 22]",14,28,2,0.077,0.077,0.0,[],default,default,2,True,True,5,5,2,2,1527,implicit-mouselab,32,376021,default,17
mouselab,False,"[2, 2, 3, 3]","[[4, 6], [3, 4], [3, 2], [8, 4], [4, 6]]","[[2, 2], [0, 0], [2, 2], [2, 2], [2, 2]]","[1, 10, 6, 7, 6]",10,29,1,0.041,0.03966666666666667,0.0013333333333333333,"[2, 3]",default,control,1,False,True,2,2,5,2,4320,implicit-mouselab,33,382006,default,17
mouselab,False,"[6, 6, 7, 7]","[[5, 5], [1, 8], [4, 4], [5, 7], [4, 1]]","[[2, 2], [2, 2], [2, 2], [0, 0], [2, 2]]","[7, 1, 4, 13, 5]",16,30,1,0.052,0.050666666666666665,0.0013333333333333333,"[6, 7]",default,control,1,False,True,2,2,5,2,3443,implicit-mouselab,34,387155,default,17
mouselab,False,"[5, 5, 7, 7, 9, 9, 6, 6]","[[6, 4, 6, 4, 3], [5, 8, 3, 5, 3]]","[[2, 2, 2, 2, 2], [0, 0, 0, 2, 0]]","[3, 27]",24,31,1,0.076,0.07333333333333333,0.0026666666666666666,"[5, 7, 9, 6]",default,control,1,False,True,5,5,2,2,6109,implicit-mouselab,35,394470,default,17
mouselab,False,[],"[[3, 9, 4, 2, 7], [6, 6, 6, 0, 3], [2, 3, 7, 7, 4], [5, 3, 7, 6, 5], [7, 5, 6, 3, 6]]","[[2, 2, 2, 2, 2], [2, 2, 2, 2, 2], [2, 2, 2, 2, 2], [2, 2, 2, 2, 2], [2, 2, 2, 2, 2]]","[2, 2, 5, 2, 19]",26,32,2,0.061,0.061,0.0,[],default,default,2,True,True,5,5,5,2,1728,implicit-mouselab,36,398284,default,17
mouselab,False,[],"[[7, 5], [2, 2], [4, 5], [2, 6], [3, 3]]","[[2, 2], [2, 2], [2, 2], [2, 2], [2, 2]]","[10, 5, 10, 2, 3]",16,33,1,0.044,0.044,0.0,[],default,default,1,True,True,2,2,5,2,1278,implicit-mouselab,37,400720,default,17
mouselab,False,[],"[[7, 6], [4, 3], [9, 4], [8, 6], [3, 7]]","[[2, 2], [2, 2], [2, 2], [2, 2], [2, 2]]","[15, 5, 5, 2, 3]",18,34,0,0.065,0.065,0.0,[],default,default,0,True,True,2,2,5,2,1507,implicit-mouselab,38,405017,default,17
mouselab,True,"[0, 0, 2, 2, 1, 1, 4, 4, 3, 3]","[[3, 4, 3, 7, 7], [4, 4, 7, 4, 6]]","[[0, 0, 0, 0, 0], [2, 2, 2, 2, 2]]","[22, 8]",14,1,4,0.067,0.06366666666666668,0.0033333333333333335,"[0, 2, 1, 4, 3]",default,control,4,False,True,5,5,2,2,20019,implicit-mouselab,4,351295,default,18
mouselab,True,[],"[[5, 0], [2, 4], [6, 7], [5, 5], [7, 4]]","[[2, 2], [2, 2], [2, 2], [2, 2], [2, 2]]","[6, 10, 6, 4, 4]",8,2,0,0.045,0.045,0.0,[],default,control,0,False,True,2,2,5,2,7791,implicit-mouselab,5,365179,default,18
mouselab,False,"[2, 2, 3, 3, 1, 1, 0, 0]","[[7, 3], [5, 6]]","[[0, 0], [0, 0]]","[13, 17]",4,3,0,0.059,0.05633333333333333,0.0026666666666666666,"[2, 3, 1, 0]",default,control,0,False,True,2,2,2,2,15755,implicit-mouselab,7,386411,default,18
mouselab,False,"[9, 9, 8, 8, 7, 7, 6, 6, 5, 5]","[[5, 3, 4, 6, 7], [8, 3, 7, 8, 3]]","[[2, 2, 2, 2, 2], [0, 0, 0, 0, 0]]","[14, 16]",2,4,3,0.071,0.06766666666666667,0.0033333333333333335,"[9, 8, 7, 6, 5]",default,control,3,False,True,5,5,2,2,12959,implicit-mouselab,8,401459,default,18
mouselab,False,[],"[[7, 3, 4, 7, 4], [3, 6, 4, 4, 4]]","[[2, 2, 2, 2, 2], [2, 2, 2, 2, 2]]","[29, 1]",28,5,3,0.069,0.069,0.0,[],default,default,3,True,True,5,5,2,2,2971,implicit-mouselab,9,406727,default,18
mouselab,False,[],"[[6, 4], [4, 7]]","[[2, 2], [2, 2]]","[22, 8]",14,6,1,0.048,0.048,0.0,[],default,default,1,True,True,2,2,2,2,2067,implicit-mouselab,10,409639,default,18
mouselab,False,[],"[[3, 7, 1, 4, 6], [4, 3, 5, 7, 3], [4, 6, 4, 4, 2], [4, 7, 5, 5, 2], [3, 7, 5, 8, 6]]","[[2, 2, 2, 2, 2], [2, 2, 2, 2, 2], [2, 2, 2, 2, 2], [2, 2, 2, 2, 2], [2, 2, 2, 2, 2]]","[7, 11, 3, 1, 8]",16,7,1,0.054,0.054,0.0,[],default,default,1,True,True,5,5,5,2,1620,implicit-mouselab,11,412435,default,18
mouselab,False,[],"[[4, 5], [5, 4]]","[[2, 2], [2, 2]]","[27, 3]",24,8,0,0.041,0.041,0.0,[],default,default,0,True,True,2,2,2,2,1371,implicit-mouselab,12,414499,default,18
mouselab,False,[],"[[4, 1, 4, 5, 3], [7, 6, 3, 5, 5], [8, 8, 3, 8, 4], [6, 5, 4, 8, 4], [2, 5, 2, 4, 5]]","[[2, 2, 2, 2, 2], [2, 2, 2, 2, 2], [2, 2, 2, 2, 2], [2, 2, 2, 2, 2], [2, 2, 2, 2, 2]]","[8, 2, 5, 4, 11]",14,9,3,0.055,0.055,0.0,[],default,default,3,True,True,5,5,5,2,1007,implicit-mouselab,13,416223,default,18
mouselab,False,[],"[[4, 3, 5, 5, 6], [6, 8, 8, 3, 5], [7, 6, 9, 9, 3], [6, 2, 2, 6, 9], [5, 7, 4, 3, 5]]","[[2, 2, 2, 2, 2], [2, 2, 2, 2, 2], [2, 2, 2, 2, 2], [2, 2, 2, 2, 2], [2, 2, 2, 2, 2]]","[5, 2, 2, 16, 5]",20,10,3,0.053,0.053,0.0,[],default,control,4,False,False,5,5,5,2,2099,implicit-mouselab,14,419979,default,18
mouselab,False,[],"[[2, 6], [6, 6]]","[[2, 2], [2, 2]]","[11, 19]",8,11,0,0.045,0.045,0.0,[],default,control,1,False,False,2,2,2,2,1687,implicit-mouselab,15,422359,default,18
mouselab,False,[],"[[2, 5, 4, 2, 5], [3, 7, 4, 4, 3]]","[[2, 2, 2, 2, 2], [2, 2, 2, 2, 2]]","[29, 1]",28,12,2,0.04,0.04,0.0,[],default,control,1,False,False,5,5,2,2,2979,implicit-mouselab,16,426779,default,18
mouselab,False,[],"[[3, 5], [8, 4]]","[[2, 2], [2, 2]]","[12, 18]",6,13,0,0.06,0.06,0.0,[],default,default,0,True,True,2,2,2,2,2027,implicit-mouselab,17,429616,default,18
mouselab,False,[],"[[5, 5, 2, 5, 6], [3, 5, 5, 6, 4]]","[[2, 2, 2, 2, 2], [2, 2, 2, 2, 2]]","[25, 5]",20,14,3,0.052,0.052,0.0,[],default,default,3,True,True,5,5,2,2,1631,implicit-mouselab,18,431963,default,18
mouselab,False,[],"[[4, 8], [4, 5], [7, 6], [4, 3], [7, 4]]","[[2, 2], [2, 2], [2, 2], [2, 2], [2, 2]]","[8, 5, 4, 4, 9]",10,15,1,0.054,0.054,0.0,[],default,default,1,True,True,2,2,5,2,1375,implicit-mouselab,19,434231,default,18
mouselab,False,[],"[[3, 5], [3, 2]]","[[2, 2], [2, 2]]","[3, 27]",24,16,0,0.03,0.03,0.0,[],default,control,1,False,False,2,2,2,2,799,implicit-mouselab,20,436271,default,18
mouselab,False,[],"[[4, 3], [6, 3]]","[[2, 2], [2, 2]]","[3, 27]",24,17,1,0.03,0.03,0.0,[],default,control,0,False,False,2,2,2,2,1511,implicit-mouselab,21,438439,default,18
mouselab,False,"[4, 4, 5, 5]","[[8, 5], [6, 6], [7, 6], [3, 5], [6, 6]]","[[2, 2], [2, 2], [0, 0], [2, 2], [2, 2]]","[4, 3, 9, 7, 7]",10,18,0,0.059,0.057666666666666665,0.0013333333333333333,"[4, 5]",default,control,0,False,True,2,2,5,2,13287,implicit-mouselab,22,454871,default,18
