type,is_practice,original_item_cost,highlight_cost,click_values,payoff_matrix,original_cost_matrix,final_cost_matrix,weights,highlight_weight,weights_deviation,trial_num,selected_option,gross_earnings,net_earnings,click_cost,uncovered_values,num_values_revealed,num_options,num_features,reaction_time,points_click_cost,points_action_utility,points_metalevel_reward,is_control,highlight_index,selected_option_highlight_value,trial_type,trial_index,time_elapsed,internal_node_id,prolific_pid,study_id,session_id,nudge_highlighted_values_are_even,highlight_value,maximized_highlighted_option,highlight_num_clicks,highlight_weight_check,highlight_num_reveals,participant_id,weights_sum
traffic-light-mouselab,True,3,1,"[2, 0, 4]","[[5, 4, 4, 7, 6], [4, 4, 9, 5, 3], [5, 3, 5, 4, 4]]","[[1, 1, 1, 1, 1], [3, 3, 3, 3, 3], [3, 3, 3, 3, 3]]","[[0, 1, 0, 1, 0], [3, 3, 3, 3, 3], [3, 3, 3, 3, 3]]","[10, 15, 5]",10,10,1,2,0.067,0.066,0.001,"[2, 0, 4]",3,5,3,36254,3,200,197,False,0,4,traffic-light-mouselab,4,266110,0.0-3.0-1.0,5e791a6bee5fd74c820ae96e,60ca52d74ed66c9bb11e25ac,60e5f6c14c6a4a7a34393e93,True,4,0,3,10,3,0,30
traffic-light-mouselab,True,3,1,"[0, 0]","[[4, 6, 4, 5, 3], [3, 6, 5, 1, 2], [3, 5, 6, 3, 8]]","[[3, 3, 3, 3, 3], [3, 3, 3, 3, 3], [3, 3, 3, 3, 3]]","[[1, 3, 3, 3, 3], [3, 3, 3, 3, 3], [3, 3, 3, 3, 3]]","[1, 3, 26]",26,32,2,0,0.03,0.029333333333333333,0.0006666666666666666,[],0,5,3,15321,2,91,89,True,2,3,traffic-light-mouselab,5,287074,0.0-3.0-2.0,5e791a6bee5fd74c820ae96e,60ca52d74ed66c9bb11e25ac,60e5f6c14c6a4a7a34393e93,True,3,0,0,26,0,0,30
traffic-light-mouselab,False,3,1,"[2, 0, 4]","[[3, 5, 2, 0, 10], [7, 3, 7, 9, 6], [4, 7, 9, 4, 3]]","[[1, 1, 1, 1, 1], [3, 3, 3, 3, 3], [3, 3, 3, 3, 3]]","[[0, 1, 0, 1, 0], [3, 3, 3, 3, 3], [3, 3, 3, 3, 3]]","[22, 2, 6]",22,24,3,4,0.083,0.082,0.001,"[2, 0, 4]",3,5,3,24858,3,250,247,False,0,10,traffic-light-mouselab,7,321769,0.0-3.0-4.0,5e791a6bee5fd74c820ae96e,60ca52d74ed66c9bb11e25ac,60e5f6c14c6a4a7a34393e93,True,10,1,3,22,3,0,30
traffic-light-mouselab,False,3,1,[10],"[[2, 5, 5, 5, 4], [3, 6, 6, 10, 6], [5, 3, 3, 6, 3]]","[[3, 3, 3, 3, 3], [3, 3, 3, 3, 3], [1, 1, 1, 1, 1]]","[[3, 3, 3, 3, 3], [3, 3, 3, 3, 3], [0, 1, 1, 1, 1]]","[23, 1, 6]",6,26,4,0,0.026,0.025666666666666664,0.0003333333333333333,[10],1,5,3,15806,1,79,78,False,2,5,traffic-light-mouselab,8,340278,0.0-3.0-5.0,5e791a6bee5fd74c820ae96e,60ca52d74ed66c9bb11e25ac,60e5f6c14c6a4a7a34393e93,True,5,0,1,6,1,0,30
traffic-light-mouselab,False,3,1,"[6, 1, 11]","[[6, 5, 5, 5, 6], [2, 6, 4, 5, 6], [4, 4, 3, 7, 6]]","[[3, 3, 3, 3, 3], [3, 3, 3, 3, 3], [3, 3, 3, 3, 3]]","[[3, 2, 3, 3, 3], [3, 2, 3, 3, 3], [3, 2, 3, 3, 3]]","[1, 25, 4]",1,30,5,1,0.057,0.056,0.001,[],0,5,3,18898,3,171,168,True,0,5,traffic-light-mouselab,9,365271,0.0-3.0-6.0,5e791a6bee5fd74c820ae96e,60ca52d74ed66c9bb11e25ac,60e5f6c14c6a4a7a34393e93,True,5,0,1,1,0,0,30
traffic-light-mouselab,False,3,1,"[5, 8, 6]","[[6, 7, 4, 7, 4], [5, 9, 5, 3, 3], [8, 2, 6, 4, 6]]","[[3, 3, 3, 3, 3], [1, 1, 1, 1, 1], [3, 3, 3, 3, 3]]","[[3, 3, 3, 3, 3], [0, 0, 1, 0, 1], [3, 3, 3, 3, 3]]","[12, 16, 2]",16,16,6,1,0.077,0.076,0.001,"[5, 8, 6]",3,5,3,12667,3,232,229,False,1,9,traffic-light-mouselab,10,380945,0.0-3.0-7.0,5e791a6bee5fd74c820ae96e,60ca52d74ed66c9bb11e25ac,60e5f6c14c6a4a7a34393e93,True,9,1,3,16,3,0,30
traffic-light-mouselab,False,3,1,"[9, 6]","[[4, 5, 8, 6, 5], [4, 6, 6, 6, 3], [5, 6, 3, 0, 8]]","[[3, 3, 3, 3, 3], [3, 3, 3, 3, 3], [3, 3, 3, 3, 3]]","[[3, 3, 3, 3, 3], [3, 2, 3, 3, 2], [3, 3, 3, 3, 3]]","[5, 15, 10]",5,10,7,2,0.053,0.05233333333333333,0.0006666666666666666,[],0,5,3,6208,2,160,158,True,0,8,traffic-light-mouselab,11,389500,0.0-3.0-8.0,5e791a6bee5fd74c820ae96e,60ca52d74ed66c9bb11e25ac,60e5f6c14c6a4a7a34393e93,True,8,1,0,5,0,0,30
traffic-light-mouselab,False,3,1,"[0, 3, 2, 4]","[[4, 7, 4, 5, 7], [1, 3, 4, 2, 6], [4, 4, 5, 2, 6]]","[[1, 1, 1, 1, 1], [3, 3, 3, 3, 3], [3, 3, 3, 3, 3]]","[[0, 1, 0, 0, 0], [3, 3, 3, 3, 3], [3, 3, 3, 3, 3]]","[20, 2, 8]",20,20,8,4,0.067,0.06566666666666666,0.0013333333333333333,"[0, 3, 2, 4]",4,5,3,9320,4,200,196,False,0,7,traffic-light-mouselab,12,401489,0.0-3.0-9.0,5e791a6bee5fd74c820ae96e,60ca52d74ed66c9bb11e25ac,60e5f6c14c6a4a7a34393e93,True,7,1,4,20,4,0,30
traffic-light-mouselab,False,3,1,"[5, 7]","[[5, 6, 6, 5, 5], [7, 10, 5, 3, 4], [5, 4, 4, 1, 6]]","[[3, 3, 3, 3, 3], [1, 1, 1, 1, 1], [3, 3, 3, 3, 3]]","[[3, 3, 3, 3, 3], [0, 1, 0, 1, 1], [3, 3, 3, 3, 3]]","[11, 14, 5]",14,10,9,0,0.059,0.05833333333333333,0.0006666666666666666,"[5, 7]",2,5,3,10003,2,178,176,False,1,7,traffic-light-mouselab,13,413528,0.0-3.0-10.0,5e791a6bee5fd74c820ae96e,60ca52d74ed66c9bb11e25ac,60e5f6c14c6a4a7a34393e93,True,7,0,2,14,2,0,30
traffic-light-mouselab,False,3,1,"[10, 10, 10]","[[3, 4, 5, 5, 6], [8, 6, 6, 6, 6], [1, 5, 6, 7, 7]]","[[3, 3, 3, 3, 3], [3, 3, 3, 3, 3], [3, 3, 3, 3, 3]]","[[3, 3, 3, 3, 3], [3, 3, 3, 3, 3], [0, 3, 3, 3, 3]]","[3, 13, 14]",13,14,10,2,0.059,0.057999999999999996,0.001,[10],1,5,3,12262,3,177,174,True,1,6,traffic-light-mouselab,14,427684,0.0-3.0-11.0,5e791a6bee5fd74c820ae96e,60ca52d74ed66c9bb11e25ac,60e5f6c14c6a4a7a34393e93,True,6,0,0,13,0,0,30
traffic-light-mouselab,False,3,1,"[0, 0, 0]","[[5, 4, 8, 2, 5], [5, 4, 3, 4, 6], [3, 5, 7, 3, 6]]","[[3, 3, 3, 3, 3], [1, 1, 1, 1, 1], [3, 3, 3, 3, 3]]","[[0, 3, 3, 3, 3], [1, 1, 1, 1, 1], [3, 3, 3, 3, 3]]","[15, 2, 13]",2,16,11,0,0.041,0.04,0.001,[0],1,5,3,8716,3,124,121,False,1,5,traffic-light-mouselab,15,439204,0.0-3.0-12.0,5e791a6bee5fd74c820ae96e,60ca52d74ed66c9bb11e25ac,60e5f6c14c6a4a7a34393e93,True,5,0,0,2,0,0,30
traffic-light-mouselab,False,3,1,"[8, 6]","[[5, 7, 6, 7, 4], [5, 3, 4, 5, 1], [5, 4, 4, 4, 3]]","[[3, 3, 3, 3, 3], [1, 1, 1, 1, 1], [3, 3, 3, 3, 3]]","[[3, 3, 3, 3, 3], [1, 0, 1, 0, 1], [3, 3, 3, 3, 3]]","[20, 8, 2]",8,20,12,3,0.063,0.06233333333333333,0.0006666666666666666,"[8, 6]",2,5,3,9140,2,188,186,False,1,5,traffic-light-mouselab,16,450697,0.0-3.0-13.0,5e791a6bee5fd74c820ae96e,60ca52d74ed66c9bb11e25ac,60e5f6c14c6a4a7a34393e93,True,5,1,2,8,2,0,30
traffic-light-mouselab,False,3,1,"[5, 5, 5]","[[5, 2, 5, 6, 3], [8, 6, 4, 3, 6], [3, 5, 9, 7, 4]]","[[3, 3, 3, 3, 3], [3, 3, 3, 3, 3], [3, 3, 3, 3, 3]]","[[3, 3, 3, 3, 3], [0, 3, 3, 3, 3], [3, 3, 3, 3, 3]]","[5, 17, 8]",17,14,13,0,0.062,0.061,0.001,[5],1,5,3,8184,3,185,182,True,1,8,traffic-light-mouselab,17,460585,0.0-3.0-14.0,5e791a6bee5fd74c820ae96e,60ca52d74ed66c9bb11e25ac,60e5f6c14c6a4a7a34393e93,True,8,1,3,17,1,0,30
traffic-light-mouselab,False,3,1,"[0, 2, 4]","[[6, 6, 7, 7, 9], [5, 7, 7, 3, 3], [4, 6, 7, 3, 4]]","[[1, 1, 1, 1, 1], [3, 3, 3, 3, 3], [3, 3, 3, 3, 3]]","[[0, 1, 0, 1, 0], [3, 3, 3, 3, 3], [3, 3, 3, 3, 3]]","[24, 2, 4]",24,28,14,4,0.079,0.078,0.001,"[0, 2, 4]",3,5,3,4784,3,238,235,False,0,9,traffic-light-mouselab,18,467978,0.0-3.0-15.0,5e791a6bee5fd74c820ae96e,60ca52d74ed66c9bb11e25ac,60e5f6c14c6a4a7a34393e93,True,9,1,3,24,3,0,30
traffic-light-mouselab,False,3,1,"[5, 7, 9]","[[4, 4, 5, 9, 7], [5, 3, 3, 4, 7], [4, 4, 2, 3, 6]]","[[3, 3, 3, 3, 3], [1, 1, 1, 1, 1], [3, 3, 3, 3, 3]]","[[3, 3, 3, 3, 3], [0, 1, 0, 1, 0], [3, 3, 3, 3, 3]]","[3, 26, 1]",26,32,15,4,0.07,0.069,0.001,"[5, 7, 9]",3,5,3,6100,3,209,206,False,1,7,traffic-light-mouselab,19,475671,0.0-3.0-16.0,5e791a6bee5fd74c820ae96e,60ca52d74ed66c9bb11e25ac,60e5f6c14c6a4a7a34393e93,True,7,1,3,26,3,0,30
traffic-light-mouselab,False,3,1,"[5, 7, 9]","[[4, 4, 5, 3, 8], [6, 8, 5, 5, 7], [3, 4, 4, 3, 2]]","[[3, 3, 3, 3, 3], [1, 1, 1, 1, 1], [3, 3, 3, 3, 3]]","[[3, 3, 3, 3, 3], [0, 1, 0, 1, 0], [3, 3, 3, 3, 3]]","[8, 12, 10]",12,4,16,4,0.056,0.055,0.001,"[5, 7, 9]",3,5,3,7751,3,168,165,False,1,7,traffic-light-mouselab,20,484879,0.0-3.0-17.0,5e791a6bee5fd74c820ae96e,60ca52d74ed66c9bb11e25ac,60e5f6c14c6a4a7a34393e93,True,7,0,3,12,3,0,30
traffic-light-mouselab,False,3,1,"[10, 10, 10, 11, 11, 11, 14, 14, 14]","[[4, 5, 4, 4, 6], [8, 4, 5, 6, 1], [3, 3, 8, 3, 6]]","[[3, 3, 3, 3, 3], [3, 3, 3, 3, 3], [3, 3, 3, 3, 3]]","[[3, 3, 3, 3, 3], [3, 3, 3, 3, 3], [0, 0, 3, 3, 0]]","[7, 1, 22]",7,24,17,4,0.058,0.055,0.003,"[10, 11, 14]",3,5,3,11168,9,175,166,True,0,6,traffic-light-mouselab,21,497524,0.0-3.0-18.0,5e791a6bee5fd74c820ae96e,60ca52d74ed66c9bb11e25ac,60e5f6c14c6a4a7a34393e93,True,6,1,0,7,0,0,30
traffic-light-mouselab,False,3,1,"[10, 10, 10, 12, 12, 12]","[[3, 6, 6, 6, 2], [6, 4, 7, 8, 3], [5, 6, 8, 4, 4]]","[[3, 3, 3, 3, 3], [3, 3, 3, 3, 3], [3, 3, 3, 3, 3]]","[[3, 3, 3, 3, 3], [3, 3, 3, 3, 3], [0, 3, 0, 3, 3]]","[4, 3, 23]",3,26,18,2,0.076,0.074,0.002,"[10, 12]",2,5,3,8012,6,229,223,True,1,7,traffic-light-mouselab,22,507512,0.0-3.0-19.0,5e791a6bee5fd74c820ae96e,60ca52d74ed66c9bb11e25ac,60e5f6c14c6a4a7a34393e93,True,7,0,0,3,0,0,30
traffic-light-mouselab,False,3,1,"[0, 3, 4, 1]","[[7, 6, 6, 6, 4], [4, 7, 6, 6, 3], [4, 2, 4, 5, 3]]","[[1, 1, 1, 1, 1], [3, 3, 3, 3, 3], [3, 3, 3, 3, 3]]","[[0, 0, 1, 0, 0], [3, 3, 3, 3, 3], [3, 3, 3, 3, 3]]","[4, 21, 5]",4,22,19,0,0.044,0.042666666666666665,0.0013333333333333333,"[0, 3, 4, 1]",4,5,3,7511,4,132,128,False,0,7,traffic-light-mouselab,23,516392,0.0-3.0-20.0,5e791a6bee5fd74c820ae96e,60ca52d74ed66c9bb11e25ac,60e5f6c14c6a4a7a34393e93,True,7,1,4,4,4,0,30
traffic-light-mouselab,False,3,1,"[10, 10, 10, 12, 12, 12]","[[4, 3, 5, 6, 6], [6, 4, 9, 3, 8], [5, 5, 4, 5, 5]]","[[3, 3, 3, 3, 3], [3, 3, 3, 3, 3], [3, 3, 3, 3, 3]]","[[3, 3, 3, 3, 3], [3, 3, 3, 3, 3], [0, 3, 0, 3, 3]]","[4, 1, 25]",25,30,20,0,0.049,0.047,0.002,"[10, 12]",2,5,3,5669,6,147,141,True,2,5,traffic-light-mouselab,24,523257,0.0-3.0-21.0,5e791a6bee5fd74c820ae96e,60ca52d74ed66c9bb11e25ac,60e5f6c14c6a4a7a34393e93,True,5,1,6,25,2,0,30
traffic-light-mouselab,False,3,1,"[10, 10, 10, 12, 12, 12]","[[3, 8, 7, 6, 6], [7, 4, 7, 4, 6], [5, 7, 4, 5, 5]]","[[3, 3, 3, 3, 3], [3, 3, 3, 3, 3], [3, 3, 3, 3, 3]]","[[3, 3, 3, 3, 3], [3, 3, 3, 3, 3], [0, 3, 0, 3, 3]]","[2, 1, 27]",27,34,21,4,0.051,0.048999999999999995,0.002,"[10, 12]",2,5,3,6943,6,153,147,True,2,5,traffic-light-mouselab,25,531927,0.0-3.0-22.0,5e791a6bee5fd74c820ae96e,60ca52d74ed66c9bb11e25ac,60e5f6c14c6a4a7a34393e93,True,5,0,6,27,2,0,30
traffic-light-mouselab,False,3,1,"[5, 7]","[[8, 3, 8, 5, 2], [4, 2, 7, 4, 4], [6, 9, 7, 7, 4]]","[[3, 3, 3, 3, 3], [1, 1, 1, 1, 1], [3, 3, 3, 3, 3]]","[[3, 3, 3, 3, 3], [0, 1, 0, 1, 1], [3, 3, 3, 3, 3]]","[13, 10, 7]",10,6,22,2,0.074,0.07333333333333333,0.0006666666666666666,"[5, 7]",2,5,3,3990,2,223,221,False,1,7,traffic-light-mouselab,26,537664,0.0-3.0-23.0,5e791a6bee5fd74c820ae96e,60ca52d74ed66c9bb11e25ac,60e5f6c14c6a4a7a34393e93,True,7,1,2,10,2,0,30
traffic-light-mouselab,False,3,1,"[6, 6, 6]","[[4, 6, 6, 5, 1], [5, 2, 4, 2, 4], [4, 5, 3, 6, 5]]","[[3, 3, 3, 3, 3], [3, 3, 3, 3, 3], [3, 3, 3, 3, 3]]","[[3, 3, 3, 3, 3], [3, 0, 3, 3, 3], [3, 3, 3, 3, 3]]","[1, 23, 6]",23,26,23,3,0.029,0.028,0.001,[6],1,5,3,6959,3,87,84,True,1,2,traffic-light-mouselab,27,545854,0.0-3.0-24.0,5e791a6bee5fd74c820ae96e,60ca52d74ed66c9bb11e25ac,60e5f6c14c6a4a7a34393e93,True,2,0,3,23,1,0,30
traffic-light-mouselab,False,3,1,[],"[[5, 6, 7, 2, 5], [5, 7, 3, 3, 6], [5, 4, 5, 2, 9]]","[[3, 3, 3, 3, 3], [3, 3, 3, 3, 3], [3, 3, 3, 3, 3]]","[[3, 3, 3, 3, 3], [3, 3, 3, 3, 3], [3, 3, 3, 3, 3]]","[6, 11, 13]",11,8,24,1,0.055,0.055,0.0,[],0,5,3,1770,0,165,165,True,1,7,traffic-light-mouselab,28,549167,0.0-3.0-25.0,5e791a6bee5fd74c820ae96e,60ca52d74ed66c9bb11e25ac,60e5f6c14c6a4a7a34393e93,True,7,1,0,11,0,0,30
traffic-light-mouselab,False,3,1,[],"[[6, 7, 6, 4, 5], [8, 4, 5, 3, 8], [6, 4, 0, 7, 6]]","[[3, 3, 3, 3, 3], [3, 3, 3, 3, 3], [3, 3, 3, 3, 3]]","[[3, 3, 3, 3, 3], [3, 3, 3, 3, 3], [3, 3, 3, 3, 3]]","[1, 19, 10]",19,18,25,2,0.034,0.034,0.0,[],0,5,3,2194,0,101,101,True,1,5,traffic-light-mouselab,29,553859,0.0-3.0-26.0,5e791a6bee5fd74c820ae96e,60ca52d74ed66c9bb11e25ac,60e5f6c14c6a4a7a34393e93,True,5,0,0,19,0,0,30
traffic-light-mouselab,False,3,1,"[0, 2, 4]","[[4, 1, 5, 5, 4], [4, 4, 6, 5, 7], [7, 6, 5, 6, 7]]","[[1, 1, 1, 1, 1], [3, 3, 3, 3, 3], [3, 3, 3, 3, 3]]","[[0, 1, 0, 1, 0], [3, 3, 3, 3, 3], [3, 3, 3, 3, 3]]","[28, 1, 1]",28,36,26,2,0.05,0.049,0.001,"[0, 2, 4]",3,5,3,5201,3,151,148,False,0,5,traffic-light-mouselab,30,560588,0.0-3.0-27.0,5e791a6bee5fd74c820ae96e,60ca52d74ed66c9bb11e25ac,60e5f6c14c6a4a7a34393e93,True,5,1,3,28,3,0,30
traffic-light-mouselab,False,3,1,"[0, 0, 0]","[[0, 7, 10, 1, 4], [3, 4, 5, 4, 8], [4, 2, 5, 4, 0]]","[[3, 3, 3, 3, 3], [3, 3, 3, 3, 3], [3, 3, 3, 3, 3]]","[[0, 3, 3, 3, 3], [3, 3, 3, 3, 3], [3, 3, 3, 3, 3]]","[15, 5, 10]",15,10,27,3,0.025,0.024,0.001,[0],1,5,3,11576,3,75,72,True,0,1,traffic-light-mouselab,31,573343,0.0-3.0-28.0,5e791a6bee5fd74c820ae96e,60ca52d74ed66c9bb11e25ac,60e5f6c14c6a4a7a34393e93,True,1,0,3,15,1,0,30
traffic-light-mouselab,False,3,1,"[11, 11, 11]","[[6, 3, 3, 6, 8], [7, 7, 2, 7, 5], [4, 5, 4, 4, 7]]","[[3, 3, 3, 3, 3], [3, 3, 3, 3, 3], [3, 3, 3, 3, 3]]","[[3, 3, 3, 3, 3], [3, 3, 3, 3, 3], [3, 0, 3, 3, 3]]","[6, 9, 15]",9,10,28,1,0.052,0.051,0.001,[11],1,5,3,5214,3,156,153,True,1,7,traffic-light-mouselab,32,580263,0.0-3.0-29.0,5e791a6bee5fd74c820ae96e,60ca52d74ed66c9bb11e25ac,60e5f6c14c6a4a7a34393e93,True,7,1,0,9,0,0,30
traffic-light-mouselab,False,3,1,"[5, 5, 5]","[[5, 8, 6, 7, 2], [5, 6, 5, 6, 5], [7, 7, 5, 5, 4]]","[[3, 3, 3, 3, 3], [3, 3, 3, 3, 3], [3, 3, 3, 3, 3]]","[[3, 3, 3, 3, 3], [0, 3, 3, 3, 3], [3, 3, 3, 3, 3]]","[7, 21, 2]",21,22,29,0,0.051,0.049999999999999996,0.001,[5],1,5,3,4030,3,154,151,True,1,5,traffic-light-mouselab,33,585412,0.0-3.0-30.0,5e791a6bee5fd74c820ae96e,60ca52d74ed66c9bb11e25ac,60e5f6c14c6a4a7a34393e93,True,5,0,3,21,1,0,30
traffic-light-mouselab,False,3,1,[1],"[[6, 8, 6, 4, 3], [8, 5, 5, 4, 5], [8, 3, 7, 1, 4]]","[[1, 1, 1, 1, 1], [3, 3, 3, 3, 3], [3, 3, 3, 3, 3]]","[[1, 0, 1, 1, 1], [3, 3, 3, 3, 3], [3, 3, 3, 3, 3]]","[18, 10, 2]",18,16,30,1,0.067,0.06666666666666667,0.0003333333333333333,[1],1,5,3,2629,1,200,199,False,0,8,traffic-light-mouselab,34,589861,0.0-3.0-31.0,5e791a6bee5fd74c820ae96e,60ca52d74ed66c9bb11e25ac,60e5f6c14c6a4a7a34393e93,True,8,1,1,18,1,0,30
traffic-light-mouselab,True,3,1,"[0, 0, 0, 11, 11, 11, 3, 3, 3, 13, 13, 13, 14, 14, 14, 5, 5, 5, 10, 10, 10, 7, 7, 7, 4, 4, 4, 12, 12, 12, 8, 8, 8, 9, 9, 9, 0, 1, 1, 1, 2, 2, 2, 6, 6, 6]","[[8, 6, 4, 5, 3], [6, 6, 4, 5, 6], [5, 6, 5, 4, 7]]","[[3, 3, 3, 3, 3], [3, 3, 3, 3, 3], [3, 3, 3, 3, 3]]","[[0, 0, 0, 0, 0], [0, 0, 0, 0, 0], [0, 0, 0, 0, 0]]","[7, 6, 17]",6,14,1,0,0.059,0.044,0.015,"[0, 11, 3, 13, 14, 5, 10, 7, 4, 12, 8, 9, 1, 2, 6]",15,5,3,46709,45,177,132,True,1,6,traffic-light-mouselab,4,210410,0.0-3.0-1.0,60e5eceb989f38c746723024,60ca52d74ed66c9bb11e25ac,60e600faed7f8d0da1f06685,False,6,1,15,6,5,1,30
traffic-light-mouselab,True,3,1,"[0, 4, 1, 2, 3, 5, 5, 5]","[[8, 3, 5, 6, 4], [6, 4, 7, 4, 5], [4, 9, 4, 5, 6]]","[[1, 1, 1, 1, 1], [3, 3, 3, 3, 3], [3, 3, 3, 3, 3]]","[[0, 0, 0, 0, 0], [0, 3, 3, 3, 3], [3, 3, 3, 3, 3]]","[13, 12, 5]",13,10,2,0,0.065,0.06233333333333334,0.0026666666666666666,"[0, 4, 1, 2, 3, 5]",6,5,3,18269,8,196,188,False,0,8,traffic-light-mouselab,5,232280,0.0-3.0-2.0,60e5eceb989f38c746723024,60ca52d74ed66c9bb11e25ac,60e600faed7f8d0da1f06685,False,8,1,5,13,5,1,30
traffic-light-mouselab,False,3,1,"[0, 1, 2, 3, 4]","[[5, 6, 5, 6, 8], [3, 4, 5, 5, 4], [7, 3, 4, 6, 6]]","[[1, 1, 1, 1, 1], [3, 3, 3, 3, 3], [3, 3, 3, 3, 3]]","[[0, 0, 0, 0, 0], [3, 3, 3, 3, 3], [3, 3, 3, 3, 3]]","[13, 10, 7]",13,6,3,4,0.062,0.060333333333333336,0.0016666666666666668,"[0, 1, 2, 3, 4]",5,5,3,7322,5,186,181,False,0,8,traffic-light-mouselab,7,245363,0.0-3.0-4.0,60e5eceb989f38c746723024,60ca52d74ed66c9bb11e25ac,60e600faed7f8d0da1f06685,False,8,1,5,13,5,1,30
traffic-light-mouselab,False,3,1,"[10, 10, 10, 11, 11, 11, 12, 12, 12, 13, 13, 13, 14, 14, 14]","[[5, 7, 3, 5, 1], [5, 5, 3, 6, 3], [6, 4, 4, 5, 4]]","[[1, 1, 1, 1, 1], [3, 3, 3, 3, 3], [3, 3, 3, 3, 3]]","[[1, 1, 1, 1, 1], [3, 3, 3, 3, 3], [0, 0, 0, 0, 0]]","[1, 9, 20]",1,20,4,0,0.057,0.052000000000000005,0.005,"[10, 11, 12, 13, 14]",5,5,3,12308,15,170,155,False,0,5,traffic-light-mouselab,8,259742,0.0-3.0-5.0,60e5eceb989f38c746723024,60ca52d74ed66c9bb11e25ac,60e600faed7f8d0da1f06685,False,5,0,0,1,0,1,30
traffic-light-mouselab,False,3,1,"[0, 0, 0, 5, 1, 1, 1, 6, 2, 2, 2, 3, 3, 3, 4, 4, 4]","[[9, 2, 4, 4, 5], [4, 7, 7, 5, 10], [5, 8, 4, 5, 5]]","[[3, 3, 3, 3, 3], [1, 1, 1, 1, 1], [3, 3, 3, 3, 3]]","[[0, 0, 0, 0, 0], [0, 0, 1, 1, 1], [3, 3, 3, 3, 3]]","[13, 7, 10]",7,6,5,0,0.065,0.059333333333333335,0.005666666666666667,"[0, 5, 1, 6, 2, 3, 4]",7,5,3,13227,17,195,178,False,1,4,traffic-light-mouselab,9,276019,0.0-3.0-6.0,60e5eceb989f38c746723024,60ca52d74ed66c9bb11e25ac,60e600faed7f8d0da1f06685,False,4,0,2,7,2,1,30
traffic-light-mouselab,False,3,1,"[10, 11, 12, 13, 14]","[[6, 3, 4, 8, 3], [4, 6, 6, 5, 5], [3, 5, 3, 9, 5]]","[[3, 3, 3, 3, 3], [3, 3, 3, 3, 3], [1, 1, 1, 1, 1]]","[[3, 3, 3, 3, 3], [3, 3, 3, 3, 3], [0, 0, 0, 0, 0]]","[12, 9, 9]",9,4,6,3,0.074,0.07233333333333333,0.0016666666666666668,"[10, 11, 12, 13, 14]",5,5,3,8516,5,222,217,False,2,9,traffic-light-mouselab,10,287134,0.0-3.0-7.0,60e5eceb989f38c746723024,60ca52d74ed66c9bb11e25ac,60e600faed7f8d0da1f06685,False,9,1,5,9,5,1,30
traffic-light-mouselab,False,3,1,"[5, 6, 7, 8, 9]","[[4, 5, 7, 3, 6], [5, 4, 7, 6, 8], [5, 4, 4, 7, 6]]","[[3, 3, 3, 3, 3], [1, 1, 1, 1, 1], [3, 3, 3, 3, 3]]","[[3, 3, 3, 3, 3], [0, 0, 0, 0, 0], [3, 3, 3, 3, 3]]","[2, 25, 3]",25,30,7,4,0.077,0.07533333333333334,0.0016666666666666668,"[5, 6, 7, 8, 9]",5,5,3,6940,5,230,225,False,1,8,traffic-light-mouselab,11,295820,0.0-3.0-8.0,60e5eceb989f38c746723024,60ca52d74ed66c9bb11e25ac,60e600faed7f8d0da1f06685,False,8,1,5,25,5,1,30
traffic-light-mouselab,False,3,1,"[0, 0, 0, 1, 1, 1, 2, 2, 2, 3, 3, 3, 4, 4, 4]","[[4, 8, 4, 4, 4], [4, 8, 6, 5, 6], [5, 3, 5, 6, 5]]","[[3, 3, 3, 3, 3], [3, 3, 3, 3, 3], [3, 3, 3, 3, 3]]","[[0, 0, 0, 0, 0], [3, 3, 3, 3, 3], [3, 3, 3, 3, 3]]","[24, 2, 4]",4,28,8,1,0.073,0.06799999999999999,0.005,"[0, 1, 2, 3, 4]",5,5,3,7097,15,220,205,True,2,3,traffic-light-mouselab,12,304561,0.0-3.0-9.0,60e5eceb989f38c746723024,60ca52d74ed66c9bb11e25ac,60e600faed7f8d0da1f06685,False,3,0,0,4,0,1,30
traffic-light-mouselab,False,3,1,"[10, 10, 10, 11, 11, 11, 12, 12, 12, 13, 13, 13, 14, 14, 14]","[[4, 6, 5, 9, 4], [6, 7, 6, 4, 6], [8, 5, 3, 6, 4]]","[[3, 3, 3, 3, 3], [3, 3, 3, 3, 3], [3, 3, 3, 3, 3]]","[[3, 3, 3, 3, 3], [3, 3, 3, 3, 3], [0, 0, 0, 0, 0]]","[4, 2, 24]",24,28,9,0,0.073,0.06799999999999999,0.005,"[10, 11, 12, 13, 14]",5,5,3,6368,15,220,205,True,2,8,traffic-light-mouselab,13,311963,0.0-3.0-10.0,60e5eceb989f38c746723024,60ca52d74ed66c9bb11e25ac,60e600faed7f8d0da1f06685,False,8,1,15,24,5,1,30
traffic-light-mouselab,False,3,1,"[0, 1, 2, 3, 4]","[[5, 3, 6, 7, 5], [7, 5, 5, 6, 5], [7, 6, 5, 7, 6]]","[[1, 1, 1, 1, 1], [3, 3, 3, 3, 3], [3, 3, 3, 3, 3]]","[[0, 0, 0, 0, 0], [3, 3, 3, 3, 3], [3, 3, 3, 3, 3]]","[19, 3, 8]",19,18,10,3,0.069,0.06733333333333334,0.0016666666666666668,"[0, 1, 2, 3, 4]",5,5,3,4353,5,207,202,False,0,7,traffic-light-mouselab,14,317273,0.0-3.0-11.0,60e5eceb989f38c746723024,60ca52d74ed66c9bb11e25ac,60e600faed7f8d0da1f06685,False,7,1,5,19,5,1,30
traffic-light-mouselab,False,3,1,"[10, 10, 10]","[[4, 5, 7, 8, 4], [4, 6, 5, 4, 7], [8, 8, 5, 7, 6]]","[[3, 3, 3, 3, 3], [3, 3, 3, 3, 3], [3, 3, 3, 3, 3]]","[[3, 3, 3, 3, 3], [3, 3, 3, 3, 3], [0, 3, 3, 3, 3]]","[2, 2, 26]",26,32,11,0,0.075,0.074,0.001,[10],1,5,3,3284,3,224,221,True,2,8,traffic-light-mouselab,15,323877,0.0-3.0-12.0,60e5eceb989f38c746723024,60ca52d74ed66c9bb11e25ac,60e600faed7f8d0da1f06685,False,8,1,3,26,1,1,30
traffic-light-mouselab,False,3,1,"[0, 0, 0]","[[8, 5, 3, 1, 5], [3, 4, 7, 4, 6], [5, 3, 5, 4, 6]]","[[3, 3, 3, 3, 3], [3, 3, 3, 3, 3], [1, 1, 1, 1, 1]]","[[0, 3, 3, 3, 3], [3, 3, 3, 3, 3], [1, 1, 1, 1, 1]]","[14, 11, 5]",5,10,12,0,0.057,0.056,0.001,[0],1,5,3,4140,3,170,167,False,2,5,traffic-light-mouselab,16,329019,0.0-3.0-13.0,60e5eceb989f38c746723024,60ca52d74ed66c9bb11e25ac,60e600faed7f8d0da1f06685,False,5,0,0,5,0,1,30
traffic-light-mouselab,False,3,1,"[10, 10, 10, 11, 11, 11, 12, 12, 12, 13, 13, 13]","[[7, 5, 4, 8, 6], [5, 4, 5, 4, 6], [4, 1, 5, 7, 5]]","[[3, 3, 3, 3, 3], [3, 3, 3, 3, 3], [3, 3, 3, 3, 3]]","[[3, 3, 3, 3, 3], [3, 3, 3, 3, 3], [0, 0, 0, 0, 3]]","[1, 9, 20]",20,20,13,3,0.061,0.056999999999999995,0.004,"[10, 11, 12, 13]",4,5,3,6512,12,184,172,True,2,7,traffic-light-mouselab,17,336939,0.0-3.0-14.0,60e5eceb989f38c746723024,60ca52d74ed66c9bb11e25ac,60e600faed7f8d0da1f06685,False,7,1,12,20,4,1,30
traffic-light-mouselab,False,3,1,"[5, 5, 5, 6, 6, 6, 7, 7, 7, 8, 8, 8, 9, 9, 9]","[[5, 1, 5, 5, 4], [3, 4, 1, 6, 3], [6, 7, 5, 2, 7]]","[[3, 3, 3, 3, 3], [3, 3, 3, 3, 3], [3, 3, 3, 3, 3]]","[[3, 3, 3, 3, 3], [0, 0, 0, 0, 0], [3, 3, 3, 3, 3]]","[3, 17, 10]",10,14,14,3,0.046,0.041,0.005,"[5, 6, 7, 8, 9]",5,5,3,7323,15,137,122,True,2,2,traffic-light-mouselab,18,345376,0.0-3.0-15.0,60e5eceb989f38c746723024,60ca52d74ed66c9bb11e25ac,60e600faed7f8d0da1f06685,False,2,0,0,10,0,1,30
traffic-light-mouselab,False,3,1,"[5, 5, 5, 6, 6, 6, 7, 7, 7, 1, 1, 1]","[[5, 6, 9, 4, 8], [4, 6, 4, 5, 5], [6, 3, 4, 7, 6]]","[[3, 3, 3, 3, 3], [3, 3, 3, 3, 3], [3, 3, 3, 3, 3]]","[[3, 0, 3, 3, 3], [0, 0, 0, 3, 3], [3, 3, 3, 3, 3]]","[11, 12, 7]",12,6,15,1,0.053,0.049,0.004,"[5, 6, 7, 1]",4,5,3,8752,12,159,147,True,1,6,traffic-light-mouselab,19,354962,0.0-3.0-16.0,60e5eceb989f38c746723024,60ca52d74ed66c9bb11e25ac,60e600faed7f8d0da1f06685,False,6,1,9,12,3,1,30
traffic-light-mouselab,False,3,1,"[5, 5, 5, 6, 6, 6, 8, 8, 8, 7, 7, 7, 9, 9, 9, 12, 12, 12, 10, 10, 10]","[[6, 5, 6, 2, 3], [7, 3, 6, 4, 5], [5, 6, 7, 6, 6]]","[[3, 3, 3, 3, 3], [3, 3, 3, 3, 3], [3, 3, 3, 3, 3]]","[[3, 3, 3, 3, 3], [0, 0, 0, 0, 0], [0, 3, 0, 3, 3]]","[4, 16, 10]",16,12,16,2,0.063,0.056,0.007,"[5, 6, 8, 7, 9, 12, 10]",7,5,3,30396,21,190,169,True,1,6,traffic-light-mouselab,20,387283,0.0-3.0-17.0,60e5eceb989f38c746723024,60ca52d74ed66c9bb11e25ac,60e600faed7f8d0da1f06685,False,6,0,15,16,5,1,30
traffic-light-mouselab,False,3,1,"[0, 1, 2, 3, 4]","[[6, 6, 4, 4, 5], [4, 5, 5, 7, 7], [7, 5, 4, 4, 9]]","[[1, 1, 1, 1, 1], [3, 3, 3, 3, 3], [3, 3, 3, 3, 3]]","[[0, 0, 0, 0, 0], [3, 3, 3, 3, 3], [3, 3, 3, 3, 3]]","[21, 7, 2]",21,22,17,0,0.056,0.05433333333333334,0.0016666666666666668,"[0, 1, 2, 3, 4]",5,5,3,7154,5,168,163,False,0,6,traffic-light-mouselab,21,395529,0.0-3.0-18.0,60e5eceb989f38c746723024,60ca52d74ed66c9bb11e25ac,60e600faed7f8d0da1f06685,False,6,1,5,21,5,1,30
traffic-light-mouselab,False,3,1,"[10, 11, 12, 13, 14, 9, 9, 9, 9]","[[3, 6, 5, 4, 4], [6, 4, 4, 2, 8], [5, 4, 3, 5, 6]]","[[3, 3, 3, 3, 3], [3, 3, 3, 3, 3], [1, 1, 1, 1, 1]]","[[3, 3, 3, 3, 3], [3, 3, 3, 3, 0], [0, 0, 0, 0, 0]]","[3, 12, 15]",15,14,18,4,0.066,0.06333333333333334,0.0026666666666666666,"[10, 11, 12, 13, 14, 9]",6,5,3,6614,8,198,190,False,2,6,traffic-light-mouselab,22,404439,0.0-3.0-19.0,60e5eceb989f38c746723024,60ca52d74ed66c9bb11e25ac,60e600faed7f8d0da1f06685,False,6,1,5,15,5,1,30
traffic-light-mouselab,False,3,1,"[5, 5, 5, 6, 6, 6, 7, 7, 7, 8, 8, 8, 9, 9, 9]","[[6, 3, 6, 3, 2], [6, 3, 3, 3, 8], [7, 4, 2, 3, 8]]","[[3, 3, 3, 3, 3], [3, 3, 3, 3, 3], [3, 3, 3, 3, 3]]","[[3, 3, 3, 3, 3], [0, 0, 0, 0, 0], [3, 3, 3, 3, 3]]","[6, 22, 2]",22,24,19,4,0.068,0.063,0.005,"[5, 6, 7, 8, 9]",5,5,3,6884,15,204,189,True,1,8,traffic-light-mouselab,23,412753,0.0-3.0-20.0,60e5eceb989f38c746723024,60ca52d74ed66c9bb11e25ac,60e600faed7f8d0da1f06685,False,8,1,15,22,5,1,30
traffic-light-mouselab,False,3,1,"[5, 5, 5, 6, 6, 6, 7, 7, 7, 8, 8, 8, 9, 9, 9, 1, 1, 1, 0, 0, 0]","[[3, 5, 7, 7, 4], [6, 7, 3, 2, 5], [3, 0, 5, 7, 4]]","[[3, 3, 3, 3, 3], [3, 3, 3, 3, 3], [3, 3, 3, 3, 3]]","[[0, 0, 3, 3, 3], [0, 0, 0, 0, 0], [3, 3, 3, 3, 3]]","[8, 20, 2]",2,20,20,1,0.06,0.053,0.007,"[5, 6, 7, 8, 9, 1, 0]",7,5,3,9832,21,180,159,True,2,0,traffic-light-mouselab,24,424385,0.0-3.0-21.0,60e5eceb989f38c746723024,60ca52d74ed66c9bb11e25ac,60e600faed7f8d0da1f06685,False,0,0,0,2,0,1,30
traffic-light-mouselab,False,3,1,"[5, 5, 5, 6, 6, 6, 7, 7, 7, 8, 8, 8, 9, 9, 9]","[[5, 5, 5, 4, 6], [6, 5, 7, 5, 5], [4, 7, 1, 7, 1]]","[[3, 3, 3, 3, 3], [3, 3, 3, 3, 3], [3, 3, 3, 3, 3]]","[[3, 3, 3, 3, 3], [0, 0, 0, 0, 0], [3, 3, 3, 3, 3]]","[9, 15, 6]",6,10,21,2,0.052,0.047,0.005,"[5, 6, 7, 8, 9]",5,5,3,6332,15,156,141,True,2,1,traffic-light-mouselab,25,433116,0.0-3.0-22.0,60e5eceb989f38c746723024,60ca52d74ed66c9bb11e25ac,60e600faed7f8d0da1f06685,False,1,0,0,6,0,1,30
traffic-light-mouselab,False,3,1,"[5, 6, 7, 8, 9, 11, 11, 11, 10, 10, 10]","[[6, 5, 4, 8, 7], [5, 4, 3, 3, 2], [4, 6, 5, 8, 4]]","[[3, 3, 3, 3, 3], [1, 1, 1, 1, 1], [3, 3, 3, 3, 3]]","[[3, 3, 3, 3, 3], [0, 0, 0, 0, 0], [0, 0, 3, 3, 3]]","[6, 17, 7]",17,14,22,0,0.05,0.04633333333333334,0.0036666666666666666,"[5, 6, 7, 8, 9, 11, 10]",7,5,3,16412,11,149,138,False,1,5,traffic-light-mouselab,26,450485,0.0-3.0-23.0,60e5eceb989f38c746723024,60ca52d74ed66c9bb11e25ac,60e600faed7f8d0da1f06685,False,5,1,5,17,5,1,30
traffic-light-mouselab,False,3,1,"[10, 11, 12, 13]","[[7, 5, 6, 10, 6], [6, 4, 1, 7, 7], [7, 4, 6, 10, 9]]","[[3, 3, 3, 3, 3], [3, 3, 3, 3, 3], [1, 1, 1, 1, 1]]","[[3, 3, 3, 3, 3], [3, 3, 3, 3, 3], [0, 0, 0, 0, 1]]","[3, 4, 23]",23,26,23,3,0.096,0.09466666666666666,0.0013333333333333333,"[10, 11, 12, 13]",4,5,3,3757,4,288,284,False,2,10,traffic-light-mouselab,27,457066,0.0-3.0-24.0,60e5eceb989f38c746723024,60ca52d74ed66c9bb11e25ac,60e600faed7f8d0da1f06685,False,10,1,4,23,4,1,30
traffic-light-mouselab,False,3,1,"[5, 5, 5, 6, 6, 6, 7, 7, 7, 8, 8, 8, 9, 9, 9]","[[5, 6, 8, 6, 3], [6, 8, 5, 4, 4], [2, 6, 7, 5, 6]]","[[3, 3, 3, 3, 3], [3, 3, 3, 3, 3], [3, 3, 3, 3, 3]]","[[3, 3, 3, 3, 3], [0, 0, 0, 0, 0], [3, 3, 3, 3, 3]]","[11, 18, 1]",18,18,24,1,0.072,0.06699999999999999,0.005,"[5, 6, 7, 8, 9]",5,5,3,6154,15,216,201,True,1,8,traffic-light-mouselab,28,464648,0.0-3.0-25.0,60e5eceb989f38c746723024,60ca52d74ed66c9bb11e25ac,60e600faed7f8d0da1f06685,False,8,1,15,18,5,1,30
traffic-light-mouselab,False,3,1,"[0, 0, 0, 2, 1, 1, 1, 2, 2, 2, 3, 3, 3, 4, 4, 4]","[[7, 7, 6, 4, 7], [4, 5, 7, 10, 4], [4, 4, 3, 6, 5]]","[[3, 3, 3, 3, 3], [3, 3, 3, 3, 3], [3, 3, 3, 3, 3]]","[[0, 0, 0, 0, 0], [3, 3, 3, 3, 3], [3, 3, 3, 3, 3]]","[28, 1, 1]",28,36,25,0,0.068,0.063,0.005,"[0, 1, 2, 3, 4]",5,5,3,9180,15,204,189,True,0,7,traffic-light-mouselab,29,474988,0.0-3.0-26.0,60e5eceb989f38c746723024,60ca52d74ed66c9bb11e25ac,60e600faed7f8d0da1f06685,False,7,1,16,28,5,1,30
traffic-light-mouselab,False,3,1,"[0, 0, 0, 1, 1, 1, 2, 2, 2, 3, 3, 3, 4, 4, 4, 13, 13, 13, 14, 14, 14]","[[4, 5, 5, 6, 6], [4, 4, 4, 5, 7], [8, 2, 5, 8, 6]]","[[3, 3, 3, 3, 3], [3, 3, 3, 3, 3], [3, 3, 3, 3, 3]]","[[0, 0, 0, 0, 0], [3, 3, 3, 3, 3], [3, 3, 3, 0, 0]]","[15, 7, 8]",8,10,26,3,0.063,0.056,0.007,"[0, 1, 2, 3, 4, 13, 14]",7,5,3,10584,21,189,168,True,2,8,traffic-light-mouselab,30,486633,0.0-3.0-27.0,60e5eceb989f38c746723024,60ca52d74ed66c9bb11e25ac,60e600faed7f8d0da1f06685,False,8,1,6,8,2,1,30
traffic-light-mouselab,False,3,1,"[0, 0, 0, 5, 5, 5, 6, 6, 6, 1, 1, 1, 2, 2, 2, 7, 7, 7, 8, 8, 8, 3, 3, 3, 4, 4, 4, 9, 9, 9]","[[5, 8, 3, 1, 6], [5, 3, 6, 5, 5], [7, 4, 3, 5, 6]]","[[3, 3, 3, 3, 3], [3, 3, 3, 3, 3], [3, 3, 3, 3, 3]]","[[0, 0, 0, 0, 0], [0, 0, 0, 0, 0], [3, 3, 3, 3, 3]]","[15, 14, 1]",14,18,27,4,0.055,0.045,0.01,"[0, 5, 6, 1, 2, 7, 8, 3, 4, 9]",10,5,3,13340,30,166,136,True,1,5,traffic-light-mouselab,31,500806,0.0-3.0-28.0,60e5eceb989f38c746723024,60ca52d74ed66c9bb11e25ac,60e600faed7f8d0da1f06685,False,5,0,15,14,5,1,30
traffic-light-mouselab,False,3,1,"[0, 1, 2, 3, 4, 10, 10, 10, 11, 11, 11, 14, 14, 14]","[[6, 6, 4, 3, 5], [6, 5, 6, 7, 6], [6, 6, 3, 7, 1]]","[[1, 1, 1, 1, 1], [3, 3, 3, 3, 3], [3, 3, 3, 3, 3]]","[[0, 0, 0, 0, 0], [3, 3, 3, 3, 3], [0, 0, 3, 3, 0]]","[11, 6, 13]",11,8,28,0,0.06,0.05533333333333333,0.004666666666666667,"[0, 1, 2, 3, 4, 10, 11, 14]",8,5,3,11823,14,180,166,False,0,6,traffic-light-mouselab,32,514308,0.0-3.0-29.0,60e5eceb989f38c746723024,60ca52d74ed66c9bb11e25ac,60e600faed7f8d0da1f06685,False,6,1,5,11,5,1,30
traffic-light-mouselab,False,3,1,"[10, 11, 12, 13, 14]","[[7, 3, 9, 8, 7], [8, 6, 7, 6, 3], [7, 5, 6, 4, 4]]","[[3, 3, 3, 3, 3], [3, 3, 3, 3, 3], [1, 1, 1, 1, 1]]","[[3, 3, 3, 3, 3], [3, 3, 3, 3, 3], [0, 0, 0, 0, 0]]","[1, 2, 27]",27,34,29,0,0.071,0.06933333333333333,0.0016666666666666668,"[10, 11, 12, 13, 14]",5,5,3,5475,5,212,207,False,2,7,traffic-light-mouselab,33,521540,0.0-3.0-30.0,60e5eceb989f38c746723024,60ca52d74ed66c9bb11e25ac,60e600faed7f8d0da1f06685,False,7,1,5,27,5,1,30
traffic-light-mouselab,False,3,1,"[5, 5, 5, 6, 6, 6, 7, 7, 7, 8, 8, 8, 9, 9, 9, 1, 1, 1]","[[8, 7, 3, 4, 7], [6, 8, 5, 3, 6], [5, 6, 5, 4, 2]]","[[3, 3, 3, 3, 3], [3, 3, 3, 3, 3], [1, 1, 1, 1, 1]]","[[3, 0, 3, 3, 3], [0, 0, 0, 0, 0], [1, 1, 1, 1, 1]]","[13, 14, 3]",3,14,30,1,0.074,0.06799999999999999,0.006,"[5, 6, 7, 8, 9, 1]",6,5,3,9686,18,221,203,False,2,6,traffic-light-mouselab,34,532622,0.0-3.0-31.0,60e5eceb989f38c746723024,60ca52d74ed66c9bb11e25ac,60e600faed7f8d0da1f06685,False,6,1,0,3,0,1,30
traffic-light-mouselab,True,3,1,"[10, 5, 5, 5, 0, 10, 10]","[[4, 5, 7, 4, 5], [6, 3, 5, 3, 6], [8, 7, 7, 4, 5]]","[[1, 1, 1, 1, 1], [3, 3, 3, 3, 3], [3, 3, 3, 3, 3]]","[[0, 1, 1, 1, 1], [0, 3, 3, 3, 3], [0, 3, 3, 3, 3]]","[6, 15, 9]",6,10,1,0,0.062,0.059666666666666666,0.0023333333333333335,"[5, 0, 10]",3,5,3,29914,7,186,179,False,0,4,traffic-light-mouselab,4,404592,0.0-3.0-1.0,5d3f443eafe77e001ac43d25,60ca52d74ed66c9bb11e25ac,60e5ff03282bbc3e60208de4,True,4,0,1,6,1,2,30
traffic-light-mouselab,True,3,1,"[0, 5, 5, 5, 2, 2, 10, 10, 10, 0, 0, 7, 7, 7, 12, 12, 12, 2, 2]","[[5, 6, 4, 5, 6], [7, 8, 6, 7, 3], [4, 5, 6, 5, 2]]","[[3, 3, 3, 3, 3], [3, 3, 3, 3, 3], [3, 3, 3, 3, 3]]","[[0, 3, 0, 3, 3], [0, 3, 0, 3, 3], [0, 3, 0, 3, 3]]","[11, 13, 6]",13,8,2,2,0.053,0.047,0.006,"[5, 10, 0, 7, 12, 2]",6,5,3,22199,18,158,140,True,1,6,traffic-light-mouselab,5,433682,0.0-3.0-2.0,5d3f443eafe77e001ac43d25,60ca52d74ed66c9bb11e25ac,60e5ff03282bbc3e60208de4,True,6,0,6,13,2,2,30
traffic-light-mouselab,False,3,1,"[13, 3, 3, 3, 8, 8, 8]","[[3, 6, 5, 4, 4], [4, 9, 5, 6, 8], [3, 4, 7, 1, 4]]","[[3, 3, 3, 3, 3], [3, 3, 3, 3, 3], [1, 1, 1, 1, 1]]","[[3, 3, 3, 0, 3], [3, 3, 3, 0, 3], [1, 1, 1, 0, 1]]","[16, 4, 10]",10,12,3,3,0.033,0.03066666666666667,0.0023333333333333335,"[13, 3, 8]",3,5,3,15179,7,98,91,False,2,1,traffic-light-mouselab,7,460746,0.0-3.0-4.0,5d3f443eafe77e001ac43d25,60ca52d74ed66c9bb11e25ac,60e5ff03282bbc3e60208de4,True,1,0,1,10,1,2,30
traffic-light-mouselab,False,3,1,"[6, 6, 6, 11, 11, 11, 1]","[[2, 6, 4, 8, 4], [6, 5, 5, 5, 4], [3, 5, 4, 4, 5]]","[[1, 1, 1, 1, 1], [3, 3, 3, 3, 3], [3, 3, 3, 3, 3]]","[[1, 0, 1, 1, 1], [3, 0, 3, 3, 3], [3, 0, 3, 3, 3]]","[22, 1, 7]",22,24,4,1,0.057,0.05466666666666667,0.0023333333333333335,"[6, 11, 1]",3,5,3,9800,7,172,165,False,0,6,traffic-light-mouselab,8,472537,0.0-3.0-5.0,5d3f443eafe77e001ac43d25,60ca52d74ed66c9bb11e25ac,60e5ff03282bbc3e60208de4,True,6,0,1,22,1,2,30
traffic-light-mouselab,False,3,1,"[4, 4, 4, 14, 14, 14, 9, 9, 9]","[[5, 5, 3, 6, 7], [7, 6, 5, 4, 8], [5, 8, 5, 5, 7]]","[[3, 3, 3, 3, 3], [3, 3, 3, 3, 3], [3, 3, 3, 3, 3]]","[[3, 3, 3, 3, 0], [3, 3, 3, 3, 0], [3, 3, 3, 3, 0]]","[13, 7, 10]",7,6,5,4,0.072,0.06899999999999999,0.003,"[4, 14, 9]",3,5,3,8439,9,217,208,True,1,8,traffic-light-mouselab,9,483279,0.0-3.0-6.0,5d3f443eafe77e001ac43d25,60ca52d74ed66c9bb11e25ac,60e5ff03282bbc3e60208de4,True,8,1,3,7,1,2,30
traffic-light-mouselab,False,3,1,"[7, 7, 7, 12, 12, 12, 2, 2, 2]","[[4, 7, 7, 4, 4], [5, 6, 9, 4, 4], [3, 5, 5, 6, 3]]","[[3, 3, 3, 3, 3], [3, 3, 3, 3, 3], [3, 3, 3, 3, 3]]","[[3, 3, 0, 3, 3], [3, 3, 0, 3, 3], [3, 3, 0, 3, 3]]","[2, 7, 21]",21,22,6,2,0.061,0.057999999999999996,0.003,"[7, 12, 2]",3,5,3,10001,9,182,173,True,2,5,traffic-light-mouselab,10,494901,0.0-3.0-7.0,5d3f443eafe77e001ac43d25,60ca52d74ed66c9bb11e25ac,60e5ff03282bbc3e60208de4,True,5,0,3,21,1,2,30
traffic-light-mouselab,False,3,1,"[3, 3, 3, 8, 8, 8, 13]","[[3, 3, 4, 3, 2], [6, 5, 5, 8, 4], [5, 4, 7, 2, 5]]","[[3, 3, 3, 3, 3], [3, 3, 3, 3, 3], [1, 1, 1, 1, 1]]","[[3, 3, 3, 0, 3], [3, 3, 3, 0, 3], [1, 1, 1, 0, 1]]","[10, 8, 12]",12,4,7,3,0.039,0.03666666666666667,0.0023333333333333335,"[3, 8, 13]",3,5,3,6343,7,118,111,False,2,2,traffic-light-mouselab,11,502743,0.0-3.0-8.0,5d3f443eafe77e001ac43d25,60ca52d74ed66c9bb11e25ac,60e5ff03282bbc3e60208de4,True,2,0,1,12,1,2,30
traffic-light-mouselab,False,3,1,"[6, 6, 6, 1, 11, 11, 11]","[[6, 4, 4, 2, 5], [7, 3, 6, 7, 5], [4, 3, 1, 4, 7]]","[[1, 1, 1, 1, 1], [3, 3, 3, 3, 3], [3, 3, 3, 3, 3]]","[[1, 0, 1, 1, 1], [3, 0, 3, 3, 3], [3, 0, 3, 3, 3]]","[4, 2, 24]",4,28,8,1,0.031,0.028666666666666667,0.0023333333333333335,"[6, 1, 11]",3,5,3,7204,7,94,87,False,0,4,traffic-light-mouselab,12,513859,0.0-3.0-9.0,5d3f443eafe77e001ac43d25,60ca52d74ed66c9bb11e25ac,60e5ff03282bbc3e60208de4,True,4,0,1,4,1,2,30
traffic-light-mouselab,False,3,1,"[2, 2, 2, 7, 7, 7, 12, 12, 12]","[[6, 7, 4, 6, 4], [6, 7, 6, 2, 5], [6, 4, 3, 8, 9]]","[[3, 3, 3, 3, 3], [3, 3, 3, 3, 3], [3, 3, 3, 3, 3]]","[[3, 3, 0, 3, 3], [3, 3, 0, 3, 3], [3, 3, 0, 3, 3]]","[3, 13, 14]",3,14,9,2,0.044,0.040999999999999995,0.003,"[2, 7, 12]",3,5,3,6492,9,132,123,True,0,4,traffic-light-mouselab,13,521409,0.0-3.0-10.0,5d3f443eafe77e001ac43d25,60ca52d74ed66c9bb11e25ac,60e5ff03282bbc3e60208de4,True,4,0,3,3,1,2,30
traffic-light-mouselab,False,3,1,"[0, 0, 0, 5, 5, 5, 10, 10, 10]","[[4, 6, 5, 8, 4], [5, 6, 3, 5, 3], [7, 7, 4, 6, 6]]","[[3, 3, 3, 3, 3], [3, 3, 3, 3, 3], [3, 3, 3, 3, 3]]","[[0, 3, 3, 3, 3], [0, 3, 3, 3, 3], [0, 3, 3, 3, 3]]","[9, 16, 5]",5,12,10,0,0.05,0.047,0.003,"[0, 5, 10]",3,5,3,5119,9,151,142,True,2,7,traffic-light-mouselab,14,527684,0.0-3.0-11.0,5d3f443eafe77e001ac43d25,60ca52d74ed66c9bb11e25ac,60e5ff03282bbc3e60208de4,True,7,1,3,5,1,2,30
traffic-light-mouselab,False,3,1,"[1, 1, 1, 6, 6, 6, 11]","[[10, 8, 5, 5, 4], [4, 6, 6, 7, 7], [3, 1, 3, 4, 7]]","[[3, 3, 3, 3, 3], [3, 3, 3, 3, 3], [1, 1, 1, 1, 1]]","[[3, 0, 3, 3, 3], [3, 0, 3, 3, 3], [1, 0, 1, 1, 1]]","[8, 14, 8]",8,8,11,1,0.052,0.049666666666666665,0.0023333333333333335,"[1, 6, 11]",3,5,3,6158,7,156,149,False,2,1,traffic-light-mouselab,15,535412,0.0-3.0-12.0,5d3f443eafe77e001ac43d25,60ca52d74ed66c9bb11e25ac,60e5ff03282bbc3e60208de4,True,1,0,1,8,1,2,30
traffic-light-mouselab,False,3,1,"[1, 1, 1, 6, 6, 6, 11, 11, 11]","[[6, 5, 5, 7, 0], [6, 5, 8, 7, 2], [7, 3, 5, 3, 1]]","[[3, 3, 3, 3, 3], [3, 3, 3, 3, 3], [3, 3, 3, 3, 3]]","[[3, 0, 3, 3, 3], [3, 0, 3, 3, 3], [3, 0, 3, 3, 3]]","[6, 15, 9]",15,10,12,1,0.044,0.040999999999999995,0.003,"[1, 6, 11]",3,5,3,7822,9,132,123,True,1,5,traffic-light-mouselab,16,544401,0.0-3.0-13.0,5d3f443eafe77e001ac43d25,60ca52d74ed66c9bb11e25ac,60e5ff03282bbc3e60208de4,True,5,0,3,15,1,2,30
traffic-light-mouselab,False,3,1,"[0, 0, 0, 5, 5, 5, 10, 10, 10]","[[3, 5, 8, 3, 9], [6, 4, 4, 6, 3], [7, 3, 6, 4, 7]]","[[3, 3, 3, 3, 3], [3, 3, 3, 3, 3], [3, 3, 3, 3, 3]]","[[0, 3, 3, 3, 3], [0, 3, 3, 3, 3], [0, 3, 3, 3, 3]]","[23, 1, 6]",1,26,13,0,0.039,0.036,0.003,"[0, 5, 10]",3,5,3,7725,9,117,108,True,1,6,traffic-light-mouselab,17,555947,0.0-3.0-14.0,5d3f443eafe77e001ac43d25,60ca52d74ed66c9bb11e25ac,60e5ff03282bbc3e60208de4,True,6,1,3,1,1,2,30
traffic-light-mouselab,False,3,1,"[3, 8, 8, 8, 13, 13, 13]","[[3, 6, 4, 7, 6], [3, 8, 4, 8, 3], [7, 3, 8, 6, 6]]","[[1, 1, 1, 1, 1], [3, 3, 3, 3, 3], [3, 3, 3, 3, 3]]","[[1, 1, 1, 0, 1], [3, 3, 3, 0, 3], [3, 3, 3, 0, 3]]","[20, 1, 9]",20,20,14,3,0.067,0.06466666666666666,0.0023333333333333335,"[3, 8, 13]",3,5,3,15237,7,202,195,False,0,7,traffic-light-mouselab,18,572657,0.0-3.0-15.0,5d3f443eafe77e001ac43d25,60ca52d74ed66c9bb11e25ac,60e5ff03282bbc3e60208de4,True,7,1,1,20,1,2,30
traffic-light-mouselab,False,3,1,"[2, 2, 2, 7, 7, 7, 12]","[[9, 4, 6, 4, 7], [4, 6, 3, 6, 3], [6, 3, 6, 2, 7]]","[[3, 3, 3, 3, 3], [3, 3, 3, 3, 3], [1, 1, 1, 1, 1]]","[[3, 3, 0, 3, 3], [3, 3, 0, 3, 3], [1, 1, 0, 1, 1]]","[1, 15, 14]",14,18,15,2,0.045,0.042666666666666665,0.0023333333333333335,"[2, 7, 12]",3,5,3,8504,7,135,128,False,2,6,traffic-light-mouselab,19,582597,0.0-3.0-16.0,5d3f443eafe77e001ac43d25,60ca52d74ed66c9bb11e25ac,60e5ff03282bbc3e60208de4,True,6,0,1,14,1,2,30
traffic-light-mouselab,False,3,1,"[2, 2, 2, 7, 7, 7, 12, 12, 12]","[[6, 7, 7, 4, 6], [5, 6, 5, 4, 6], [6, 5, 4, 4, 7]]","[[3, 3, 3, 3, 3], [3, 3, 3, 3, 3], [3, 3, 3, 3, 3]]","[[3, 3, 0, 3, 3], [3, 3, 0, 3, 3], [3, 3, 0, 3, 3]]","[3, 17, 10]",17,14,16,2,0.049,0.046,0.003,"[2, 7, 12]",3,5,3,4422,9,146,137,True,1,5,traffic-light-mouselab,20,588349,0.0-3.0-17.0,5d3f443eafe77e001ac43d25,60ca52d74ed66c9bb11e25ac,60e5ff03282bbc3e60208de4,True,5,0,3,17,1,2,30
traffic-light-mouselab,False,3,1,"[4, 4, 4, 9, 9, 9, 14, 14, 14]","[[7, 6, 7, 6, 7], [5, 4, 6, 4, 8], [6, 6, 10, 7, 5]]","[[3, 3, 3, 3, 3], [3, 3, 3, 3, 3], [3, 3, 3, 3, 3]]","[[3, 3, 3, 3, 0], [3, 3, 3, 3, 0], [3, 3, 3, 3, 0]]","[20, 1, 9]",9,20,17,4,0.064,0.061,0.003,"[4, 9, 14]",3,5,3,4317,9,193,184,True,2,5,traffic-light-mouselab,21,594021,0.0-3.0-18.0,5d3f443eafe77e001ac43d25,60ca52d74ed66c9bb11e25ac,60e5ff03282bbc3e60208de4,True,5,0,3,9,1,2,30
traffic-light-mouselab,False,3,1,"[11, 6, 6, 6, 1, 1, 1]","[[3, 5, 8, 5, 7], [5, 6, 3, 2, 7], [5, 7, 3, 4, 5]]","[[3, 3, 3, 3, 3], [3, 3, 3, 3, 3], [1, 1, 1, 1, 1]]","[[3, 0, 3, 3, 3], [3, 0, 3, 3, 3], [1, 0, 1, 1, 1]]","[2, 10, 18]",18,16,18,1,0.065,0.06266666666666666,0.0023333333333333335,"[11, 6, 1]",3,5,3,6433,7,196,189,False,2,7,traffic-light-mouselab,22,601997,0.0-3.0-19.0,5d3f443eafe77e001ac43d25,60ca52d74ed66c9bb11e25ac,60e5ff03282bbc3e60208de4,True,7,1,1,18,1,2,30
traffic-light-mouselab,False,3,1,"[3, 3, 8, 3, 13, 13, 13]","[[6, 4, 4, 7, 5], [9, 4, 7, 7, 8], [5, 4, 5, 4, 7]]","[[3, 3, 3, 3, 3], [1, 1, 1, 1, 1], [3, 3, 3, 3, 3]]","[[3, 3, 3, 0, 3], [1, 1, 1, 0, 1], [3, 3, 3, 0, 3]]","[1, 28, 1]",28,36,19,3,0.069,0.06666666666666667,0.0023333333333333335,"[8, 3, 13]",3,5,3,8959,7,207,200,False,1,7,traffic-light-mouselab,23,617939,0.0-3.0-20.0,5d3f443eafe77e001ac43d25,60ca52d74ed66c9bb11e25ac,60e5ff03282bbc3e60208de4,True,7,0,1,28,1,2,30
traffic-light-mouselab,False,3,1,"[4, 4, 9, 9, 9, 14, 14, 14]","[[5, 4, 3, 4, 4], [1, 6, 5, 6, 4], [6, 4, 2, 3, 6]]","[[1, 1, 1, 1, 1], [3, 3, 3, 3, 3], [3, 3, 3, 3, 3]]","[[1, 1, 1, 1, 0], [3, 3, 3, 3, 0], [3, 3, 3, 3, 0]]","[24, 4, 2]",24,28,20,4,0.041,0.03866666666666667,0.0023333333333333335,"[4, 9, 14]",3,5,3,6979,7,124,117,False,0,4,traffic-light-mouselab,24,626013,0.0-3.0-21.0,5d3f443eafe77e001ac43d25,60ca52d74ed66c9bb11e25ac,60e5ff03282bbc3e60208de4,True,4,0,2,24,1,2,30
traffic-light-mouselab,False,3,1,"[1, 1, 1, 6, 6, 6, 11, 11, 11]","[[3, 8, 5, 8, 6], [7, 7, 1, 3, 4], [5, 5, 4, 6, 6]]","[[3, 3, 3, 3, 3], [3, 3, 3, 3, 3], [3, 3, 3, 3, 3]]","[[3, 0, 3, 3, 3], [3, 0, 3, 3, 3], [3, 0, 3, 3, 3]]","[5, 23, 2]",23,26,21,1,0.07,0.067,0.003,"[1, 6, 11]",3,5,3,9343,9,211,202,True,1,7,traffic-light-mouselab,25,636463,0.0-3.0-22.0,5d3f443eafe77e001ac43d25,60ca52d74ed66c9bb11e25ac,60e5ff03282bbc3e60208de4,True,7,1,3,23,1,2,30
traffic-light-mouselab,False,3,1,"[3, 3, 3, 8, 13, 13, 13]","[[4, 6, 5, 5, 1], [4, 2, 2, 4, 5], [4, 2, 5, 4, 7]]","[[3, 3, 3, 3, 3], [1, 1, 1, 1, 1], [3, 3, 3, 3, 3]]","[[3, 3, 3, 0, 3], [1, 1, 1, 0, 1], [3, 3, 3, 0, 3]]","[17, 2, 11]",2,16,22,3,0.046,0.043666666666666666,0.0023333333333333335,"[3, 8, 13]",3,5,3,6071,7,137,130,False,1,4,traffic-light-mouselab,26,643615,0.0-3.0-23.0,5d3f443eafe77e001ac43d25,60ca52d74ed66c9bb11e25ac,60e5ff03282bbc3e60208de4,True,4,0,1,2,1,2,30
traffic-light-mouselab,False,3,1,"[3, 8, 8, 8, 13, 13, 13]","[[7, 5, 4, 7, 5], [8, 7, 5, 5, 8], [6, 6, 6, 6, 7]]","[[1, 1, 1, 1, 1], [3, 3, 3, 3, 3], [3, 3, 3, 3, 3]]","[[1, 1, 1, 0, 1], [3, 3, 3, 0, 3], [3, 3, 3, 0, 3]]","[26, 2, 2]",26,32,23,3,0.068,0.06566666666666666,0.0023333333333333335,"[3, 8, 13]",3,5,3,5662,7,204,197,False,0,7,traffic-light-mouselab,27,650339,0.0-3.0-24.0,5d3f443eafe77e001ac43d25,60ca52d74ed66c9bb11e25ac,60e5ff03282bbc3e60208de4,True,7,1,1,26,1,2,30
traffic-light-mouselab,False,3,1,"[4, 4, 4, 9, 9, 9, 14, 14, 14]","[[5, 6, 7, 7, 6], [3, 3, 5, 4, 5], [7, 5, 7, 5, 3]]","[[3, 3, 3, 3, 3], [3, 3, 3, 3, 3], [3, 3, 3, 3, 3]]","[[3, 3, 3, 3, 0], [3, 3, 3, 3, 0], [3, 3, 3, 3, 0]]","[2, 15, 13]",13,16,24,4,0.042,0.039,0.003,"[4, 9, 14]",3,5,3,8163,9,126,117,True,2,3,traffic-light-mouselab,28,659728,0.0-3.0-25.0,5d3f443eafe77e001ac43d25,60ca52d74ed66c9bb11e25ac,60e5ff03282bbc3e60208de4,True,3,0,3,13,1,2,30
traffic-light-mouselab,False,3,1,"[0, 5, 5, 5, 10, 10, 10]","[[3, 3, 5, 4, 8], [6, 6, 5, 4, 7], [6, 4, 4, 4, 5]]","[[1, 1, 1, 1, 1], [3, 3, 3, 3, 3], [3, 3, 3, 3, 3]]","[[0, 1, 1, 1, 1], [0, 3, 3, 3, 3], [0, 3, 3, 3, 3]]","[6, 2, 22]",6,24,25,0,0.054,0.051666666666666666,0.0023333333333333335,"[0, 5, 10]",3,5,3,5858,7,162,155,False,0,3,traffic-light-mouselab,29,666661,0.0-3.0-26.0,5d3f443eafe77e001ac43d25,60ca52d74ed66c9bb11e25ac,60e5ff03282bbc3e60208de4,True,3,0,1,6,1,2,30
traffic-light-mouselab,False,3,1,"[3, 3, 3, 8, 8, 8, 13, 13, 13]","[[7, 6, 6, 5, 5], [7, 5, 5, 5, 4], [3, 5, 6, 4, 7]]","[[3, 3, 3, 3, 3], [3, 3, 3, 3, 3], [3, 3, 3, 3, 3]]","[[3, 3, 3, 0, 3], [3, 3, 3, 0, 3], [3, 3, 3, 0, 3]]","[3, 19, 8]",19,18,26,3,0.047,0.044,0.003,"[3, 8, 13]",3,5,3,5258,9,142,133,True,1,5,traffic-light-mouselab,30,672925,0.0-3.0-27.0,5d3f443eafe77e001ac43d25,60ca52d74ed66c9bb11e25ac,60e5ff03282bbc3e60208de4,True,5,0,3,19,1,2,30
traffic-light-mouselab,False,3,1,"[1, 1, 1, 6, 6, 6, 11, 11, 11]","[[5, 7, 8, 5, 8], [6, 7, 3, 8, 2], [2, 4, 7, 4, 5]]","[[3, 3, 3, 3, 3], [3, 3, 3, 3, 3], [3, 3, 3, 3, 3]]","[[3, 0, 3, 3, 3], [3, 0, 3, 3, 3], [3, 0, 3, 3, 3]]","[3, 16, 11]",11,14,27,1,0.059,0.055999999999999994,0.003,"[1, 6, 11]",3,5,3,5173,9,177,168,True,2,4,traffic-light-mouselab,31,679231,0.0-3.0-28.0,5d3f443eafe77e001ac43d25,60ca52d74ed66c9bb11e25ac,60e5ff03282bbc3e60208de4,True,4,0,3,11,1,2,30
traffic-light-mouselab,False,3,1,"[4, 9, 9, 9, 14, 14, 14]","[[4, 4, 4, 6, 4], [3, 7, 2, 7, 5], [6, 4, 3, 3, 3]]","[[1, 1, 1, 1, 1], [3, 3, 3, 3, 3], [3, 3, 3, 3, 3]]","[[1, 1, 1, 1, 0], [3, 3, 3, 3, 0], [3, 3, 3, 3, 0]]","[16, 9, 5]",16,12,28,4,0.041,0.03866666666666667,0.0023333333333333335,"[4, 9, 14]",3,5,3,4525,7,124,117,False,0,4,traffic-light-mouselab,32,684907,0.0-3.0-29.0,5d3f443eafe77e001ac43d25,60ca52d74ed66c9bb11e25ac,60e5ff03282bbc3e60208de4,True,4,0,1,16,1,2,30
traffic-light-mouselab,False,3,1,"[2, 2, 2, 7, 7, 7, 12, 12, 12]","[[5, 1, 3, 3, 6], [3, 7, 5, 10, 7], [5, 7, 2, 8, 5]]","[[3, 3, 3, 3, 3], [3, 3, 3, 3, 3], [3, 3, 3, 3, 3]]","[[3, 3, 0, 3, 3], [3, 3, 0, 3, 3], [3, 3, 0, 3, 3]]","[1, 25, 4]",25,30,29,2,0.045,0.041999999999999996,0.003,"[2, 7, 12]",3,5,3,5334,9,136,127,True,1,5,traffic-light-mouselab,33,691704,0.0-3.0-30.0,5d3f443eafe77e001ac43d25,60ca52d74ed66c9bb11e25ac,60e5ff03282bbc3e60208de4,True,5,0,3,25,1,2,30
traffic-light-mouselab,False,3,1,"[3, 3, 3, 8, 8, 8, 13, 13, 13]","[[7, 5, 5, 5, 4], [7, 5, 2, 4, 5], [7, 6, 6, 7, 4]]","[[3, 3, 3, 3, 3], [3, 3, 3, 3, 3], [3, 3, 3, 3, 3]]","[[3, 3, 3, 0, 3], [3, 3, 3, 0, 3], [3, 3, 3, 0, 3]]","[1, 2, 27]",27,34,30,3,0.067,0.064,0.003,"[3, 8, 13]",3,5,3,12851,9,202,193,True,2,7,traffic-light-mouselab,34,706172,0.0-3.0-31.0,5d3f443eafe77e001ac43d25,60ca52d74ed66c9bb11e25ac,60e5ff03282bbc3e60208de4,True,7,1,3,27,1,2,30
traffic-light-mouselab,True,3,1,"[0, 12, 12, 12, 3, 1]","[[4, 6, 2, 2, 3], [5, 5, 6, 5, 6], [4, 5, 3, 1, 6]]","[[1, 1, 1, 1, 1], [3, 3, 3, 3, 3], [3, 3, 3, 3, 3]]","[[0, 0, 1, 0, 1], [3, 3, 3, 3, 3], [3, 3, 0, 3, 3]]","[7, 6, 17]",7,14,1,1,0.052,0.049999999999999996,0.002,"[0, 12, 3, 1]",4,5,3,31769,6,157,151,False,0,6,traffic-light-mouselab,4,227798,0.0-3.0-1.0,60e5de61d7cbe360895d5a20,60ca52d74ed66c9bb11e25ac,60e6031924faad04d4b45244,True,6,1,3,7,3,3,30
traffic-light-mouselab,True,3,1,"[12, 12, 12]","[[6, 6, 5, 8, 9], [7, 7, 7, 7, 6], [5, 8, 6, 5, 6]]","[[3, 3, 3, 3, 3], [3, 3, 3, 3, 3], [3, 3, 3, 3, 3]]","[[3, 3, 3, 3, 3], [3, 3, 3, 3, 3], [3, 3, 0, 3, 3]]","[5, 4, 21]",21,22,2,2,0.06,0.059,0.001,[12],1,5,3,11490,3,179,176,True,2,6,traffic-light-mouselab,5,245774,0.0-3.0-2.0,60e5de61d7cbe360895d5a20,60ca52d74ed66c9bb11e25ac,60e6031924faad04d4b45244,True,6,0,3,21,1,3,30
traffic-light-mouselab,False,3,1,"[13, 13, 13, 10, 10, 10]","[[7, 6, 7, 7, 6], [8, 7, 4, 5, 6], [4, 5, 4, 5, 8]]","[[1, 1, 1, 1, 1], [3, 3, 3, 3, 3], [3, 3, 3, 3, 3]]","[[1, 1, 1, 1, 1], [3, 3, 3, 3, 3], [0, 3, 3, 0, 3]]","[2, 2, 26]",2,32,3,2,0.042,0.04,0.002,"[13, 10]",2,5,3,11113,6,126,120,False,0,7,traffic-light-mouselab,7,266101,0.0-3.0-4.0,60e5de61d7cbe360895d5a20,60ca52d74ed66c9bb11e25ac,60e6031924faad04d4b45244,True,7,1,0,2,0,3,30
traffic-light-mouselab,False,3,1,"[13, 10]","[[6, 3, 7, 4, 5], [9, 7, 9, 6, 4], [6, 3, 3, 2, 5]]","[[3, 3, 3, 3, 3], [3, 3, 3, 3, 3], [1, 1, 1, 1, 1]]","[[3, 3, 3, 3, 3], [3, 3, 3, 3, 3], [0, 1, 1, 0, 1]]","[16, 2, 12]",12,16,4,0,0.062,0.06133333333333333,0.0006666666666666666,"[13, 10]",2,5,3,7947,2,186,184,False,2,6,traffic-light-mouselab,8,277248,0.0-3.0-5.0,60e5de61d7cbe360895d5a20,60ca52d74ed66c9bb11e25ac,60e6031924faad04d4b45244,True,6,1,2,12,2,3,30
traffic-light-mouselab,False,3,1,"[7, 7, 7, 5, 5, 5]","[[3, 5, 4, 6, 5], [5, 6, 5, 6, 10], [8, 5, 5, 7, 1]]","[[3, 3, 3, 3, 3], [3, 3, 3, 3, 3], [3, 3, 3, 3, 3]]","[[3, 3, 3, 3, 3], [0, 3, 0, 3, 3], [3, 3, 3, 3, 3]]","[3, 16, 11]",3,14,5,0,0.059,0.056999999999999995,0.002,"[7, 5]",2,5,3,10202,6,177,171,True,0,3,traffic-light-mouselab,9,294424,0.0-3.0-6.0,60e5de61d7cbe360895d5a20,60ca52d74ed66c9bb11e25ac,60e6031924faad04d4b45244,True,3,0,0,3,0,3,30
traffic-light-mouselab,False,3,1,"[3, 3, 3, 0, 0, 0]","[[4, 4, 6, 4, 2], [5, 5, 4, 7, 6], [6, 8, 4, 8, 2]]","[[3, 3, 3, 3, 3], [3, 3, 3, 3, 3], [3, 3, 3, 3, 3]]","[[0, 3, 3, 0, 3], [3, 3, 3, 3, 3], [3, 3, 3, 3, 3]]","[21, 5, 4]",21,22,6,1,0.047,0.045,0.002,"[3, 0]",2,5,3,9035,6,141,135,True,0,4,traffic-light-mouselab,10,308498,0.0-3.0-7.0,60e5de61d7cbe360895d5a20,60ca52d74ed66c9bb11e25ac,60e6031924faad04d4b45244,True,4,0,6,21,2,3,30
traffic-light-mouselab,False,3,1,"[14, 14, 14]","[[7, 3, 5, 6, 6], [5, 4, 8, 6, 2], [7, 3, 2, 4, 4]]","[[3, 3, 3, 3, 3], [3, 3, 3, 3, 3], [3, 3, 3, 3, 3]]","[[3, 3, 3, 3, 3], [3, 3, 3, 3, 3], [3, 3, 3, 3, 0]]","[10, 9, 11]",11,2,7,3,0.053,0.052,0.001,[14],1,5,3,6100,3,158,155,True,2,4,traffic-light-mouselab,11,317838,0.0-3.0-8.0,60e5de61d7cbe360895d5a20,60ca52d74ed66c9bb11e25ac,60e6031924faad04d4b45244,True,4,0,3,11,1,3,30
traffic-light-mouselab,False,3,1,[10],"[[6, 6, 3, 6, 4], [5, 4, 4, 5, 5], [8, 7, 7, 5, 6]]","[[3, 3, 3, 3, 3], [3, 3, 3, 3, 3], [1, 1, 1, 1, 1]]","[[3, 3, 3, 3, 3], [3, 3, 3, 3, 3], [0, 1, 1, 1, 1]]","[3, 1, 26]",26,32,8,0,0.077,0.07666666666666666,0.0003333333333333333,[10],1,5,3,5083,1,231,230,False,2,8,traffic-light-mouselab,12,326234,0.0-3.0-9.0,60e5de61d7cbe360895d5a20,60ca52d74ed66c9bb11e25ac,60e6031924faad04d4b45244,True,8,1,1,26,1,3,30
traffic-light-mouselab,False,3,1,"[5, 7]","[[8, 5, 7, 1, 3], [4, 3, 8, 7, 6], [6, 8, 5, 5, 5]]","[[3, 3, 3, 3, 3], [1, 1, 1, 1, 1], [3, 3, 3, 3, 3]]","[[3, 3, 3, 3, 3], [0, 1, 0, 1, 1], [3, 3, 3, 3, 3]]","[18, 10, 2]",10,16,9,2,0.072,0.07133333333333333,0.0006666666666666666,"[5, 7]",2,5,3,6748,2,216,214,False,1,8,traffic-light-mouselab,13,335830,0.0-3.0-10.0,60e5de61d7cbe360895d5a20,60ca52d74ed66c9bb11e25ac,60e6031924faad04d4b45244,True,8,1,2,10,2,3,30
traffic-light-mouselab,False,3,1,"[5, 6, 7, 8]","[[6, 7, 7, 7, 3], [5, 4, 4, 3, 4], [4, 5, 4, 7, 1]]","[[3, 3, 3, 3, 3], [1, 1, 1, 1, 1], [3, 3, 3, 3, 3]]","[[3, 3, 3, 3, 3], [0, 0, 0, 0, 1], [3, 3, 3, 3, 3]]","[4, 16, 10]",16,12,10,4,0.029,0.02766666666666667,0.0013333333333333333,"[5, 6, 7, 8]",4,5,3,6660,4,86,82,False,1,4,traffic-light-mouselab,14,344362,0.0-3.0-11.0,60e5de61d7cbe360895d5a20,60ca52d74ed66c9bb11e25ac,60e6031924faad04d4b45244,True,4,0,4,16,4,3,30
traffic-light-mouselab,False,3,1,"[10, 11]","[[5, 5, 5, 3, 5], [5, 4, 7, 3, 5], [4, 6, 6, 6, 5]]","[[3, 3, 3, 3, 3], [3, 3, 3, 3, 3], [1, 1, 1, 1, 1]]","[[3, 3, 3, 3, 3], [3, 3, 3, 3, 3], [0, 0, 1, 1, 1]]","[7, 9, 14]",14,8,11,1,0.052,0.05133333333333333,0.0006666666666666666,"[10, 11]",2,5,3,4333,2,155,153,False,2,6,traffic-light-mouselab,15,350831,0.0-3.0-12.0,60e5de61d7cbe360895d5a20,60ca52d74ed66c9bb11e25ac,60e6031924faad04d4b45244,True,6,1,2,14,2,3,30
traffic-light-mouselab,False,3,1,"[4, 4, 4, 2, 2, 2, 0, 0, 0]","[[7, 7, 4, 5, 4], [10, 2, 8, 7, 6], [4, 4, 4, 7, 4]]","[[3, 3, 3, 3, 3], [3, 3, 3, 3, 3], [3, 3, 3, 3, 3]]","[[0, 3, 0, 3, 0], [3, 3, 3, 3, 3], [3, 3, 3, 3, 3]]","[17, 7, 6]",7,14,12,0,0.071,0.06799999999999999,0.003,"[4, 2, 0]",3,5,3,9195,9,213,204,True,1,10,traffic-light-mouselab,16,363146,0.0-3.0-13.0,60e5de61d7cbe360895d5a20,60ca52d74ed66c9bb11e25ac,60e6031924faad04d4b45244,True,10,1,0,7,0,3,30
traffic-light-mouselab,False,3,1,"[5, 6]","[[3, 4, 4, 6, 6], [4, 9, 6, 7, 6], [5, 7, 5, 7, 6]]","[[3, 3, 3, 3, 3], [1, 1, 1, 1, 1], [3, 3, 3, 3, 3]]","[[3, 3, 3, 3, 3], [0, 0, 1, 1, 1], [3, 3, 3, 3, 3]]","[3, 22, 5]",22,24,13,1,0.082,0.08133333333333334,0.0006666666666666666,"[5, 6]",2,5,3,3797,2,245,243,False,1,9,traffic-light-mouselab,17,368951,0.0-3.0-14.0,60e5de61d7cbe360895d5a20,60ca52d74ed66c9bb11e25ac,60e6031924faad04d4b45244,True,9,1,2,22,2,3,30
traffic-light-mouselab,False,3,1,"[5, 5, 5]","[[4, 6, 7, 6, 4], [5, 5, 3, 5, 2], [5, 6, 9, 2, 5]]","[[3, 3, 3, 3, 3], [3, 3, 3, 3, 3], [3, 3, 3, 3, 3]]","[[3, 3, 3, 3, 3], [0, 3, 3, 3, 3], [3, 3, 3, 3, 3]]","[2, 17, 11]",17,16,14,0,0.049,0.048,0.001,[5],1,5,3,4510,3,148,145,True,1,5,traffic-light-mouselab,18,374788,0.0-3.0-15.0,60e5de61d7cbe360895d5a20,60ca52d74ed66c9bb11e25ac,60e6031924faad04d4b45244,True,5,1,3,17,1,3,30
traffic-light-mouselab,False,3,1,"[10, 10, 10, 11, 11, 11]","[[7, 3, 3, 6, 6], [7, 5, 2, 4, 6], [2, 4, 3, 5, 4]]","[[3, 3, 3, 3, 3], [3, 3, 3, 3, 3], [3, 3, 3, 3, 3]]","[[3, 3, 3, 3, 3], [3, 3, 3, 3, 3], [0, 0, 3, 3, 3]]","[9, 9, 12]",9,4,15,2,0.027,0.025,0.002,"[10, 11]",2,5,3,5877,6,81,75,True,1,2,traffic-light-mouselab,19,381897,0.0-3.0-16.0,60e5de61d7cbe360895d5a20,60ca52d74ed66c9bb11e25ac,60e6031924faad04d4b45244,True,2,0,0,9,0,3,30
traffic-light-mouselab,False,3,1,"[10, 10, 10, 11, 11, 11]","[[4, 4, 3, 6, 6], [5, 7, 2, 6, 5], [0, 4, 7, 6, 7]]","[[3, 3, 3, 3, 3], [3, 3, 3, 3, 3], [3, 3, 3, 3, 3]]","[[3, 3, 3, 3, 3], [3, 3, 3, 3, 3], [0, 0, 3, 3, 3]]","[3, 2, 25]",25,30,16,2,0.063,0.061,0.002,"[10, 11]",2,5,3,6364,6,188,182,True,2,7,traffic-light-mouselab,20,390133,0.0-3.0-17.0,60e5de61d7cbe360895d5a20,60ca52d74ed66c9bb11e25ac,60e6031924faad04d4b45244,True,7,1,6,25,2,3,30
traffic-light-mouselab,False,3,1,"[0, 0, 0]","[[4, 7, 5, 5, 5], [6, 7, 4, 4, 7], [3, 2, 3, 6, 6]]","[[3, 3, 3, 3, 3], [3, 3, 3, 3, 3], [3, 3, 3, 3, 3]]","[[0, 3, 3, 3, 3], [3, 3, 3, 3, 3], [3, 3, 3, 3, 3]]","[19, 5, 6]",19,18,17,1,0.06,0.059,0.001,[0],1,5,3,5845,3,180,177,True,0,7,traffic-light-mouselab,21,398138,0.0-3.0-18.0,60e5de61d7cbe360895d5a20,60ca52d74ed66c9bb11e25ac,60e6031924faad04d4b45244,True,7,1,3,19,1,3,30
traffic-light-mouselab,False,3,1,"[10, 10, 10]","[[5, 2, 5, 1, 4], [8, 5, 6, 5, 8], [5, 6, 1, 8, 2]]","[[1, 1, 1, 1, 1], [3, 3, 3, 3, 3], [3, 3, 3, 3, 3]]","[[1, 1, 1, 1, 1], [3, 3, 3, 3, 3], [0, 3, 3, 3, 3]]","[6, 7, 17]",6,14,18,0,0.057,0.056,0.001,[10],1,5,3,6651,3,171,168,False,0,5,traffic-light-mouselab,22,406734,0.0-3.0-19.0,60e5de61d7cbe360895d5a20,60ca52d74ed66c9bb11e25ac,60e6031924faad04d4b45244,True,5,1,0,6,0,3,30
traffic-light-mouselab,False,3,1,"[5, 5, 5, 6, 6, 6]","[[4, 8, 5, 6, 8], [2, 6, 8, 5, 7], [7, 5, 5, 3, 5]]","[[3, 3, 3, 3, 3], [3, 3, 3, 3, 3], [3, 3, 3, 3, 3]]","[[3, 3, 3, 3, 3], [0, 0, 3, 3, 3], [3, 3, 3, 3, 3]]","[2, 27, 1]",27,34,19,1,0.061,0.059,0.002,"[5, 6]",2,5,3,5109,6,183,177,True,1,6,traffic-light-mouselab,23,413691,0.0-3.0-20.0,60e5de61d7cbe360895d5a20,60ca52d74ed66c9bb11e25ac,60e6031924faad04d4b45244,True,6,0,6,27,2,3,30
traffic-light-mouselab,False,3,1,"[5, 5, 5]","[[7, 4, 1, 6, 3], [6, 5, 7, 6, 5], [4, 6, 7, 3, 4]]","[[3, 3, 3, 3, 3], [3, 3, 3, 3, 3], [3, 3, 3, 3, 3]]","[[3, 3, 3, 3, 3], [0, 3, 3, 3, 3], [3, 3, 3, 3, 3]]","[4, 23, 3]",23,26,20,0,0.059,0.057999999999999996,0.001,[5],1,5,3,3221,3,178,175,True,1,6,traffic-light-mouselab,24,419136,0.0-3.0-21.0,60e5de61d7cbe360895d5a20,60ca52d74ed66c9bb11e25ac,60e6031924faad04d4b45244,True,6,0,3,23,1,3,30
traffic-light-mouselab,False,3,1,"[0, 1, 2]","[[4, 4, 7, 6, 4], [3, 3, 6, 2, 4], [4, 4, 5, 5, 6]]","[[1, 1, 1, 1, 1], [3, 3, 3, 3, 3], [3, 3, 3, 3, 3]]","[[0, 0, 0, 1, 1], [3, 3, 3, 3, 3], [3, 3, 3, 3, 3]]","[20, 8, 2]",20,20,21,2,0.066,0.065,0.001,"[0, 1, 2]",3,5,3,4182,3,198,195,False,0,7,traffic-light-mouselab,25,424967,0.0-3.0-22.0,60e5de61d7cbe360895d5a20,60ca52d74ed66c9bb11e25ac,60e6031924faad04d4b45244,True,7,1,3,20,3,3,30
traffic-light-mouselab,False,3,1,"[5, 5, 5]","[[5, 6, 8, 4, 2], [6, 5, 7, 4, 3], [8, 4, 3, 7, 8]]","[[3, 3, 3, 3, 3], [3, 3, 3, 3, 3], [3, 3, 3, 3, 3]]","[[3, 3, 3, 3, 3], [0, 3, 3, 3, 3], [3, 3, 3, 3, 3]]","[5, 19, 6]",5,18,22,0,0.062,0.061,0.001,[5],1,5,3,4476,3,187,184,True,0,5,traffic-light-mouselab,26,431660,0.0-3.0-23.0,60e5de61d7cbe360895d5a20,60ca52d74ed66c9bb11e25ac,60e6031924faad04d4b45244,True,5,0,0,5,0,3,30
traffic-light-mouselab,False,3,1,"[5, 6, 7]","[[6, 7, 6, 6, 9], [3, 5, 7, 6, 8], [3, 6, 7, 5, 4]]","[[3, 3, 3, 3, 3], [1, 1, 1, 1, 1], [3, 3, 3, 3, 3]]","[[3, 3, 3, 3, 3], [0, 0, 0, 1, 1], [3, 3, 3, 3, 3]]","[1, 24, 5]",24,28,23,2,0.07,0.069,0.001,"[5, 6, 7]",3,5,3,5915,3,209,206,False,1,7,traffic-light-mouselab,27,439407,0.0-3.0-24.0,60e5de61d7cbe360895d5a20,60ca52d74ed66c9bb11e25ac,60e6031924faad04d4b45244,True,7,0,3,24,3,3,30
traffic-light-mouselab,False,3,1,"[10, 10, 10, 11, 11, 11]","[[5, 5, 5, 5, 6], [4, 5, 4, 3, 1], [3, 5, 8, 5, 3]]","[[3, 3, 3, 3, 3], [3, 3, 3, 3, 3], [3, 3, 3, 3, 3]]","[[3, 3, 3, 3, 3], [3, 3, 3, 3, 3], [0, 0, 3, 3, 3]]","[14, 1, 15]",15,18,24,1,0.05,0.048,0.002,"[10, 11]",2,5,3,9507,6,150,144,True,2,5,traffic-light-mouselab,28,450091,0.0-3.0-25.0,60e5de61d7cbe360895d5a20,60ca52d74ed66c9bb11e25ac,60e6031924faad04d4b45244,True,5,0,6,15,2,3,30
traffic-light-mouselab,False,3,1,[],"[[6, 4, 5, 4, 6], [5, 6, 4, 7, 5], [3, 5, 8, 8, 6]]","[[1, 1, 1, 1, 1], [3, 3, 3, 3, 3], [3, 3, 3, 3, 3]]","[[1, 1, 1, 1, 1], [3, 3, 3, 3, 3], [3, 3, 3, 3, 3]]","[8, 11, 11]",8,4,25,2,0.057,0.057,0.0,[],0,5,3,4165,0,172,172,False,0,5,traffic-light-mouselab,29,455664,0.0-3.0-26.0,60e5de61d7cbe360895d5a20,60ca52d74ed66c9bb11e25ac,60e6031924faad04d4b45244,True,5,0,0,8,0,3,30
traffic-light-mouselab,False,3,1,[],"[[6, 6, 6, 5, 7], [5, 6, 5, 2, 4], [6, 4, 4, 8, 6]]","[[1, 1, 1, 1, 1], [3, 3, 3, 3, 3], [3, 3, 3, 3, 3]]","[[1, 1, 1, 1, 1], [3, 3, 3, 3, 3], [3, 3, 3, 3, 3]]","[4, 15, 11]",4,12,26,2,0.048,0.048,0.0,[],0,5,3,2647,0,143,143,False,0,6,traffic-light-mouselab,30,460526,0.0-3.0-27.0,60e5de61d7cbe360895d5a20,60ca52d74ed66c9bb11e25ac,60e6031924faad04d4b45244,True,6,0,0,4,0,3,30
traffic-light-mouselab,False,3,1,"[10, 10, 10, 11, 11, 11]","[[6, 5, 2, 2, 4], [6, 6, 9, 4, 7], [4, 5, 9, 5, 7]]","[[3, 3, 3, 3, 3], [3, 3, 3, 3, 3], [3, 3, 3, 3, 3]]","[[3, 3, 3, 3, 3], [3, 3, 3, 3, 3], [0, 0, 3, 3, 3]]","[8, 1, 21]",1,22,27,1,0.05,0.048,0.002,"[10, 11]",2,5,3,5301,6,151,145,True,1,6,traffic-light-mouselab,31,467051,0.0-3.0-28.0,60e5de61d7cbe360895d5a20,60ca52d74ed66c9bb11e25ac,60e6031924faad04d4b45244,True,6,0,0,1,0,3,30
traffic-light-mouselab,False,3,1,"[0, 1, 2, 3, 4]","[[4, 3, 5, 9, 6], [5, 6, 4, 5, 5], [3, 6, 5, 2, 5]]","[[1, 1, 1, 1, 1], [3, 3, 3, 3, 3], [3, 3, 3, 3, 3]]","[[0, 0, 0, 0, 0], [3, 3, 3, 3, 3], [3, 3, 3, 3, 3]]","[28, 1, 1]",28,36,28,3,0.086,0.08433333333333333,0.0016666666666666668,"[0, 1, 2, 3, 4]",5,5,3,5045,5,259,254,False,0,9,traffic-light-mouselab,32,473632,0.0-3.0-29.0,60e5de61d7cbe360895d5a20,60ca52d74ed66c9bb11e25ac,60e6031924faad04d4b45244,True,9,1,5,28,5,3,30
traffic-light-mouselab,False,3,1,[],"[[4, 3, 6, 6, 2], [3, 4, 5, 5, 5], [5, 5, 5, 3, 3]]","[[3, 3, 3, 3, 3], [3, 3, 3, 3, 3], [3, 3, 3, 3, 3]]","[[3, 3, 3, 3, 3], [3, 3, 3, 3, 3], [3, 3, 3, 3, 3]]","[16, 13, 1]",13,18,29,1,0.035,0.035,0.0,[],0,5,3,2414,0,105,105,True,1,4,traffic-light-mouselab,33,477479,0.0-3.0-30.0,60e5de61d7cbe360895d5a20,60ca52d74ed66c9bb11e25ac,60e6031924faad04d4b45244,True,4,0,0,13,0,3,30
traffic-light-mouselab,False,3,1,[5],"[[5, 5, 7, 4, 3], [6, 2, 6, 9, 5], [5, 3, 3, 2, 10]]","[[3, 3, 3, 3, 3], [1, 1, 1, 1, 1], [3, 3, 3, 3, 3]]","[[3, 3, 3, 3, 3], [0, 1, 1, 1, 1], [3, 3, 3, 3, 3]]","[11, 18, 1]",18,18,30,0,0.056,0.05566666666666667,0.0003333333333333333,[5],1,5,3,3014,1,168,167,False,1,6,traffic-light-mouselab,34,481892,0.0-3.0-31.0,60e5de61d7cbe360895d5a20,60ca52d74ed66c9bb11e25ac,60e6031924faad04d4b45244,True,6,0,1,18,1,3,30
traffic-light-mouselab,True,3,1,[],"[[9, 4, 4, 4, 4], [4, 2, 5, 8, 6], [5, 5, 8, 3, 4]]","[[1, 1, 1, 1, 1], [3, 3, 3, 3, 3], [3, 3, 3, 3, 3]]","[[1, 1, 1, 1, 1], [3, 3, 3, 3, 3], [3, 3, 3, 3, 3]]","[9, 19, 2]",9,18,1,1,0.028,0.028,0.0,[],0,5,3,3309,0,84,84,False,0,4,traffic-light-mouselab,4,226402,0.0-3.0-1.0,5b662d96b178a90001d16ea6,60ca52d74ed66c9bb11e25ac,60e603ee71de876f059308fc,True,4,0,0,9,0,4,30
traffic-light-mouselab,True,3,1,[],"[[4, 4, 7, 5, 4], [4, 6, 6, 6, 0], [3, 5, 4, 4, 3]]","[[3, 3, 3, 3, 3], [3, 3, 3, 3, 3], [3, 3, 3, 3, 3]]","[[3, 3, 3, 3, 3], [3, 3, 3, 3, 3], [3, 3, 3, 3, 3]]","[2, 24, 4]",24,28,2,4,0.007,0.007,0.0,[],0,5,3,3701,0,20,20,True,1,0,traffic-light-mouselab,5,237909,0.0-3.0-2.0,5b662d96b178a90001d16ea6,60ca52d74ed66c9bb11e25ac,60e603ee71de876f059308fc,True,0,0,0,24,0,4,30
traffic-light-mouselab,False,3,1,[],"[[2, 6, 6, 7, 9], [4, 5, 5, 9, 1], [9, 8, 8, 2, 5]]","[[3, 3, 3, 3, 3], [1, 1, 1, 1, 1], [3, 3, 3, 3, 3]]","[[3, 3, 3, 3, 3], [1, 1, 1, 1, 1], [3, 3, 3, 3, 3]]","[24, 2, 4]",2,28,3,1,0.062,0.062,0.0,[],0,5,3,2194,0,186,186,False,1,5,traffic-light-mouselab,7,248135,0.0-3.0-4.0,5b662d96b178a90001d16ea6,60ca52d74ed66c9bb11e25ac,60e603ee71de876f059308fc,True,5,0,0,2,0,4,30
traffic-light-mouselab,False,3,1,[],"[[4, 4, 5, 2, 7], [5, 3, 3, 4, 5], [6, 8, 6, 4, 5]]","[[1, 1, 1, 1, 1], [3, 3, 3, 3, 3], [3, 3, 3, 3, 3]]","[[1, 1, 1, 1, 1], [3, 3, 3, 3, 3], [3, 3, 3, 3, 3]]","[22, 7, 1]",22,24,4,1,0.039,0.039,0.0,[],0,5,3,7983,0,117,117,False,0,4,traffic-light-mouselab,8,264095,0.0-3.0-5.0,5b662d96b178a90001d16ea6,60ca52d74ed66c9bb11e25ac,60e603ee71de876f059308fc,True,4,0,0,22,0,4,30
traffic-light-mouselab,False,3,1,[],"[[5, 3, 6, 4, 4], [4, 4, 5, 5, 7], [5, 0, 6, 3, 6]]","[[3, 3, 3, 3, 3], [1, 1, 1, 1, 1], [3, 3, 3, 3, 3]]","[[3, 3, 3, 3, 3], [1, 1, 1, 1, 1], [3, 3, 3, 3, 3]]","[25, 4, 1]",4,30,5,1,0.03,0.03,0.0,[],0,5,3,2131,0,91,91,False,1,4,traffic-light-mouselab,9,269329,0.0-3.0-6.0,5b662d96b178a90001d16ea6,60ca52d74ed66c9bb11e25ac,60e603ee71de876f059308fc,True,4,0,0,4,0,4,30
traffic-light-mouselab,False,3,1,[],"[[4, 7, 6, 9, 4], [5, 1, 4, 4, 6], [6, 4, 3, 7, 4]]","[[3, 3, 3, 3, 3], [3, 3, 3, 3, 3], [3, 3, 3, 3, 3]]","[[3, 3, 3, 3, 3], [3, 3, 3, 3, 3], [3, 3, 3, 3, 3]]","[6, 23, 1]",23,26,6,4,0.055,0.055,0.0,[],0,5,3,2405,0,166,166,True,1,6,traffic-light-mouselab,10,275603,0.0-3.0-7.0,5b662d96b178a90001d16ea6,60ca52d74ed66c9bb11e25ac,60e603ee71de876f059308fc,True,6,1,0,23,0,4,30
traffic-light-mouselab,False,3,1,[],"[[5, 6, 5, 5, 5], [3, 6, 7, 6, 6], [6, 3, 3, 8, 4]]","[[3, 3, 3, 3, 3], [3, 3, 3, 3, 3], [3, 3, 3, 3, 3]]","[[3, 3, 3, 3, 3], [3, 3, 3, 3, 3], [3, 3, 3, 3, 3]]","[7, 9, 14]",7,8,7,1,0.046,0.046,0.0,[],0,5,3,7201,0,138,138,True,0,6,traffic-light-mouselab,11,284305,0.0-3.0-8.0,5b662d96b178a90001d16ea6,60ca52d74ed66c9bb11e25ac,60e603ee71de876f059308fc,True,6,1,0,7,0,4,30
traffic-light-mouselab,False,3,1,[],"[[5, 8, 2, 4, 4], [4, 6, 5, 7, 3], [6, 5, 7, 7, 3]]","[[3, 3, 3, 3, 3], [3, 3, 3, 3, 3], [3, 3, 3, 3, 3]]","[[3, 3, 3, 3, 3], [3, 3, 3, 3, 3], [3, 3, 3, 3, 3]]","[17, 3, 10]",17,14,8,3,0.053,0.053,0.0,[],0,5,3,2921,0,159,159,True,0,4,traffic-light-mouselab,12,289563,0.0-3.0-9.0,5b662d96b178a90001d16ea6,60ca52d74ed66c9bb11e25ac,60e603ee71de876f059308fc,True,4,0,0,17,0,4,30
traffic-light-mouselab,False,3,1,[],"[[5, 5, 2, 6, 3], [4, 2, 1, 5, 4], [7, 5, 4, 7, 5]]","[[3, 3, 3, 3, 3], [3, 3, 3, 3, 3], [1, 1, 1, 1, 1]]","[[3, 3, 3, 3, 3], [3, 3, 3, 3, 3], [1, 1, 1, 1, 1]]","[11, 5, 14]",14,10,9,1,0.045,0.045,0.0,[],0,5,3,1827,0,135,135,False,2,5,traffic-light-mouselab,13,293001,0.0-3.0-10.0,5b662d96b178a90001d16ea6,60ca52d74ed66c9bb11e25ac,60e603ee71de876f059308fc,True,5,0,0,14,0,4,30
traffic-light-mouselab,False,3,1,[],"[[7, 4, 8, 4, 4], [6, 7, 4, 0, 4], [4, 7, 7, 6, 4]]","[[3, 3, 3, 3, 3], [3, 3, 3, 3, 3], [3, 3, 3, 3, 3]]","[[3, 3, 3, 3, 3], [3, 3, 3, 3, 3], [3, 3, 3, 3, 3]]","[6, 15, 9]",9,10,10,3,0.026,0.026,0.0,[],0,5,3,3740,0,78,78,True,2,6,traffic-light-mouselab,14,297969,0.0-3.0-11.0,5b662d96b178a90001d16ea6,60ca52d74ed66c9bb11e25ac,60e603ee71de876f059308fc,True,6,0,0,9,0,4,30
traffic-light-mouselab,False,3,1,[],"[[6, 6, 3, 4, 3], [5, 4, 5, 2, 5], [6, 4, 4, 6, 4]]","[[1, 1, 1, 1, 1], [3, 3, 3, 3, 3], [3, 3, 3, 3, 3]]","[[1, 1, 1, 1, 1], [3, 3, 3, 3, 3], [3, 3, 3, 3, 3]]","[24, 1, 5]",24,28,11,1,0.056,0.056,0.0,[],0,5,3,1983,0,168,168,False,0,6,traffic-light-mouselab,15,303179,0.0-3.0-12.0,5b662d96b178a90001d16ea6,60ca52d74ed66c9bb11e25ac,60e603ee71de876f059308fc,True,6,1,0,24,0,4,30
traffic-light-mouselab,False,3,1,[],"[[4, 5, 7, 4, 7], [5, 4, 9, 6, 6], [5, 5, 6, 2, 3]]","[[3, 3, 3, 3, 3], [3, 3, 3, 3, 3], [3, 3, 3, 3, 3]]","[[3, 3, 3, 3, 3], [3, 3, 3, 3, 3], [3, 3, 3, 3, 3]]","[25, 3, 2]",25,30,12,0,0.042,0.042,0.0,[],0,5,3,1649,0,125,125,True,0,4,traffic-light-mouselab,16,306781,0.0-3.0-13.0,5b662d96b178a90001d16ea6,60ca52d74ed66c9bb11e25ac,60e603ee71de876f059308fc,True,4,0,0,25,0,4,30
traffic-light-mouselab,False,3,1,[],"[[6, 5, 4, 5, 6], [6, 4, 7, 4, 4], [1, 4, 4, 4, 8]]","[[3, 3, 3, 3, 3], [3, 3, 3, 3, 3], [3, 3, 3, 3, 3]]","[[3, 3, 3, 3, 3], [3, 3, 3, 3, 3], [3, 3, 3, 3, 3]]","[2, 13, 15]",15,16,13,2,0.053,0.053,0.0,[],0,5,3,733,0,159,159,True,2,4,traffic-light-mouselab,17,308867,0.0-3.0-14.0,5b662d96b178a90001d16ea6,60ca52d74ed66c9bb11e25ac,60e603ee71de876f059308fc,True,4,0,0,15,0,4,30
traffic-light-mouselab,False,3,1,[],"[[7, 3, 6, 6, 4], [2, 6, 4, 6, 5], [6, 10, 2, 7, 6]]","[[1, 1, 1, 1, 1], [3, 3, 3, 3, 3], [3, 3, 3, 3, 3]]","[[1, 1, 1, 1, 1], [3, 3, 3, 3, 3], [3, 3, 3, 3, 3]]","[10, 6, 14]",10,8,14,1,0.069,0.069,0.0,[],0,5,3,1015,0,206,206,False,0,3,traffic-light-mouselab,18,310945,0.0-3.0-15.0,5b662d96b178a90001d16ea6,60ca52d74ed66c9bb11e25ac,60e603ee71de876f059308fc,True,3,0,0,10,0,4,30
traffic-light-mouselab,False,3,1,[],"[[3, 8, 4, 3, 4], [3, 7, 4, 5, 4], [6, 4, 2, 7, 6]]","[[3, 3, 3, 3, 3], [3, 3, 3, 3, 3], [3, 3, 3, 3, 3]]","[[3, 3, 3, 3, 3], [3, 3, 3, 3, 3], [3, 3, 3, 3, 3]]","[5, 14, 11]",11,10,15,4,0.047,0.047,0.0,[],0,5,3,897,0,142,142,True,2,6,traffic-light-mouselab,19,312835,0.0-3.0-16.0,5b662d96b178a90001d16ea6,60ca52d74ed66c9bb11e25ac,60e603ee71de876f059308fc,True,6,0,0,11,0,4,30
traffic-light-mouselab,False,3,1,[],"[[5, 7, 5, 8, 6], [5, 6, 4, 3, 2], [5, 4, 5, 8, 5]]","[[3, 3, 3, 3, 3], [3, 3, 3, 3, 3], [1, 1, 1, 1, 1]]","[[3, 3, 3, 3, 3], [3, 3, 3, 3, 3], [1, 1, 1, 1, 1]]","[8, 2, 20]",20,20,16,2,0.049,0.049,0.0,[],0,5,3,593,0,148,148,False,2,5,traffic-light-mouselab,20,314835,0.0-3.0-17.0,5b662d96b178a90001d16ea6,60ca52d74ed66c9bb11e25ac,60e603ee71de876f059308fc,True,5,0,0,20,0,4,30
traffic-light-mouselab,False,3,1,[],"[[4, 4, 5, 4, 6], [9, 6, 5, 3, 5], [4, 6, 5, 5, 7]]","[[3, 3, 3, 3, 3], [1, 1, 1, 1, 1], [3, 3, 3, 3, 3]]","[[3, 3, 3, 3, 3], [1, 1, 1, 1, 1], [3, 3, 3, 3, 3]]","[10, 12, 8]",12,4,17,1,0.053,0.053,0.0,[],0,5,3,719,0,160,160,False,1,6,traffic-light-mouselab,21,316781,0.0-3.0-18.0,5b662d96b178a90001d16ea6,60ca52d74ed66c9bb11e25ac,60e603ee71de876f059308fc,True,6,0,0,12,0,4,30
traffic-light-mouselab,False,3,1,[],"[[5, 5, 5, 6, 7], [4, 8, 3, 3, 6], [5, 5, 4, 4, 10]]","[[1, 1, 1, 1, 1], [3, 3, 3, 3, 3], [3, 3, 3, 3, 3]]","[[1, 1, 1, 1, 1], [3, 3, 3, 3, 3], [3, 3, 3, 3, 3]]","[8, 2, 20]",8,20,18,2,0.042,0.042,0.0,[],0,5,3,708,0,126,126,False,0,5,traffic-light-mouselab,22,318475,0.0-3.0-19.0,5b662d96b178a90001d16ea6,60ca52d74ed66c9bb11e25ac,60e603ee71de876f059308fc,True,5,0,0,8,0,4,30
traffic-light-mouselab,False,3,1,[],"[[5, 7, 7, 6, 5], [6, 5, 5, 5, 3], [6, 4, 4, 7, 9]]","[[3, 3, 3, 3, 3], [3, 3, 3, 3, 3], [3, 3, 3, 3, 3]]","[[3, 3, 3, 3, 3], [3, 3, 3, 3, 3], [3, 3, 3, 3, 3]]","[1, 27, 2]",27,34,19,3,0.052,0.052,0.0,[],0,5,3,1289,0,155,155,True,1,5,traffic-light-mouselab,23,321389,0.0-3.0-20.0,5b662d96b178a90001d16ea6,60ca52d74ed66c9bb11e25ac,60e603ee71de876f059308fc,True,5,0,0,27,0,4,30
traffic-light-mouselab,False,3,1,[],"[[5, 4, 3, 7, 3], [4, 7, 8, 4, 4], [3, 5, 6, 4, 8]]","[[3, 3, 3, 3, 3], [1, 1, 1, 1, 1], [3, 3, 3, 3, 3]]","[[3, 3, 3, 3, 3], [1, 1, 1, 1, 1], [3, 3, 3, 3, 3]]","[1, 28, 1]",28,36,20,0,0.04,0.04,0.0,[],0,5,3,679,0,120,120,False,1,4,traffic-light-mouselab,24,323131,0.0-3.0-21.0,5b662d96b178a90001d16ea6,60ca52d74ed66c9bb11e25ac,60e603ee71de876f059308fc,True,4,0,0,28,0,4,30
traffic-light-mouselab,False,3,1,[],"[[4, 0, 6, 4, 4], [6, 4, 0, 3, 6], [5, 4, 4, 4, 4]]","[[3, 3, 3, 3, 3], [1, 1, 1, 1, 1], [3, 3, 3, 3, 3]]","[[3, 3, 3, 3, 3], [1, 1, 1, 1, 1], [3, 3, 3, 3, 3]]","[3, 26, 1]",26,32,21,1,0.036,0.036,0.0,[],0,5,3,617,0,108,108,False,1,4,traffic-light-mouselab,25,324945,0.0-3.0-22.0,5b662d96b178a90001d16ea6,60ca52d74ed66c9bb11e25ac,60e603ee71de876f059308fc,True,4,0,0,26,0,4,30
traffic-light-mouselab,False,3,1,[],"[[5, 5, 4, 3, 6], [4, 6, 5, 9, 8], [6, 5, 5, 8, 6]]","[[3, 3, 3, 3, 3], [1, 1, 1, 1, 1], [3, 3, 3, 3, 3]]","[[3, 3, 3, 3, 3], [1, 1, 1, 1, 1], [3, 3, 3, 3, 3]]","[2, 18, 10]",18,16,22,2,0.049,0.049,0.0,[],0,5,3,590,0,148,148,False,1,5,traffic-light-mouselab,26,326945,0.0-3.0-23.0,5b662d96b178a90001d16ea6,60ca52d74ed66c9bb11e25ac,60e603ee71de876f059308fc,True,5,0,0,18,0,4,30
traffic-light-mouselab,False,3,1,[],"[[5, 7, 5, 5, 4], [7, 5, 7, 5, 7], [3, 5, 4, 6, 5]]","[[3, 3, 3, 3, 3], [3, 3, 3, 3, 3], [3, 3, 3, 3, 3]]","[[3, 3, 3, 3, 3], [3, 3, 3, 3, 3], [3, 3, 3, 3, 3]]","[9, 13, 8]",13,6,23,0,0.053,0.053,0.0,[],0,5,3,840,0,160,160,True,1,7,traffic-light-mouselab,27,328905,0.0-3.0-24.0,5b662d96b178a90001d16ea6,60ca52d74ed66c9bb11e25ac,60e603ee71de876f059308fc,True,7,1,0,13,0,4,30
traffic-light-mouselab,False,3,1,[],"[[5, 3, 5, 8, 4], [5, 8, 4, 4, 5], [6, 6, 8, 9, 5]]","[[3, 3, 3, 3, 3], [3, 3, 3, 3, 3], [3, 3, 3, 3, 3]]","[[3, 3, 3, 3, 3], [3, 3, 3, 3, 3], [3, 3, 3, 3, 3]]","[19, 1, 10]",19,18,24,2,0.06,0.06,0.0,[],0,5,3,867,0,179,179,True,0,5,traffic-light-mouselab,28,330725,0.0-3.0-25.0,5b662d96b178a90001d16ea6,60ca52d74ed66c9bb11e25ac,60e603ee71de876f059308fc,True,5,0,0,19,0,4,30
traffic-light-mouselab,False,3,1,[],"[[4, 5, 8, 5, 4], [3, 5, 5, 9, 3], [5, 8, 4, 3, 4]]","[[3, 3, 3, 3, 3], [3, 3, 3, 3, 3], [3, 3, 3, 3, 3]]","[[3, 3, 3, 3, 3], [3, 3, 3, 3, 3], [3, 3, 3, 3, 3]]","[21, 7, 2]",21,22,25,1,0.052,0.052,0.0,[],0,5,3,1288,0,156,156,True,0,5,traffic-light-mouselab,29,334344,0.0-3.0-26.0,5b662d96b178a90001d16ea6,60ca52d74ed66c9bb11e25ac,60e603ee71de876f059308fc,True,5,0,0,21,0,4,30
traffic-light-mouselab,False,3,1,"[6, 0, 11]","[[3, 4, 6, 5, 6], [5, 5, 5, 5, 3], [3, 7, 4, 3, 3]]","[[3, 3, 3, 3, 3], [3, 3, 3, 3, 3], [3, 3, 3, 3, 3]]","[[2, 3, 3, 3, 3], [3, 2, 3, 3, 3], [3, 2, 3, 3, 3]]","[5, 21, 4]",5,22,26,1,0.051,0.049999999999999996,0.001,[],0,5,3,9519,3,153,150,True,0,4,traffic-light-mouselab,30,346716,0.0-3.0-27.0,5b662d96b178a90001d16ea6,60ca52d74ed66c9bb11e25ac,60e603ee71de876f059308fc,True,4,0,1,5,0,4,30
traffic-light-mouselab,False,3,1,"[1, 6, 11, 6, 1]","[[8, 7, 7, 8, 6], [4, 5, 3, 6, 7], [5, 7, 6, 5, 6]]","[[3, 3, 3, 3, 3], [3, 3, 3, 3, 3], [1, 1, 1, 1, 1]]","[[3, 1, 3, 3, 3], [3, 1, 3, 3, 3], [1, 0, 1, 1, 1]]","[11, 13, 6]",6,8,27,1,0.061,0.059333333333333335,0.0016666666666666668,[11],1,5,3,6632,5,184,179,False,2,7,traffic-light-mouselab,31,355278,0.0-3.0-28.0,5b662d96b178a90001d16ea6,60ca52d74ed66c9bb11e25ac,60e603ee71de876f059308fc,True,7,1,1,6,1,4,30
traffic-light-mouselab,False,3,1,"[5, 10, 5, 10, 5, 5, 10, 11, 11, 11, 2, 2, 4]","[[5, 4, 3, 9, 4], [5, 6, 6, 6, 2], [3, 6, 2, 5, 2]]","[[1, 1, 1, 1, 1], [3, 3, 3, 3, 3], [3, 3, 3, 3, 3]]","[[1, 1, 0, 1, 0], [0, 3, 3, 3, 3], [0, 0, 3, 3, 3]]","[16, 8, 6]",16,12,28,2,0.036,0.03233333333333333,0.0036666666666666666,"[5, 10, 11, 2, 4]",5,5,3,19606,11,108,97,False,0,3,traffic-light-mouselab,32,377520,0.0-3.0-29.0,5b662d96b178a90001d16ea6,60ca52d74ed66c9bb11e25ac,60e603ee71de876f059308fc,True,3,0,3,16,2,4,30
traffic-light-mouselab,False,3,1,[],"[[7, 2, 6, 6, 5], [6, 3, 5, 8, 1], [4, 5, 6, 6, 6]]","[[3, 3, 3, 3, 3], [3, 3, 3, 3, 3], [3, 3, 3, 3, 3]]","[[3, 3, 3, 3, 3], [3, 3, 3, 3, 3], [3, 3, 3, 3, 3]]","[1, 28, 1]",1,36,29,1,0.03,0.03,0.0,[],0,5,3,874,0,91,91,True,2,5,traffic-light-mouselab,33,381996,0.0-3.0-30.0,5b662d96b178a90001d16ea6,60ca52d74ed66c9bb11e25ac,60e603ee71de876f059308fc,True,5,0,0,1,0,4,30
traffic-light-mouselab,False,3,1,"[0, 0, 0]","[[4, 2, 6, 4, 4], [4, 7, 3, 6, 6], [6, 7, 3, 6, 5]]","[[3, 3, 3, 3, 3], [3, 3, 3, 3, 3], [3, 3, 3, 3, 3]]","[[0, 3, 3, 3, 3], [3, 3, 3, 3, 3], [3, 3, 3, 3, 3]]","[8, 3, 19]",3,18,30,1,0.057,0.056,0.001,[0],1,5,3,6429,3,170,167,True,1,7,traffic-light-mouselab,34,389792,0.0-3.0-31.0,5b662d96b178a90001d16ea6,60ca52d74ed66c9bb11e25ac,60e603ee71de876f059308fc,True,7,1,0,3,0,4,30
traffic-light-mouselab,True,3,1,"[0, 0, 0, 7, 7, 7, 13, 14, 11]","[[4, 1, 5, 4, 7], [8, 8, 5, 5, 6], [6, 2, 1, 4, 4]]","[[3, 3, 3, 3, 3], [3, 3, 3, 3, 3], [1, 1, 1, 1, 1]]","[[0, 3, 3, 3, 3], [3, 3, 0, 3, 3], [1, 0, 1, 0, 0]]","[16, 3, 11]",11,14,1,2,0.035,0.032,0.003,"[0, 7, 13, 14, 11]",5,5,3,22148,9,106,97,False,2,1,traffic-light-mouselab,4,184683,0.0-3.0-1.0,60d2a1e4c92d4f5b911365eb,60ca52d74ed66c9bb11e25ac,60e605ae2de75333d2835c63,False,1,0,3,11,3,5,30
traffic-light-mouselab,True,3,1,"[5, 5, 5, 1, 1, 1, 12, 12, 12, 3, 3, 3, 9, 9, 9]","[[5, 3, 8, 6, 7], [5, 5, 3, 0, 8], [6, 2, 6, 4, 7]]","[[3, 3, 3, 3, 3], [3, 3, 3, 3, 3], [3, 3, 3, 3, 3]]","[[3, 0, 3, 0, 3], [0, 3, 3, 3, 0], [3, 3, 0, 3, 3]]","[6, 8, 16]",8,12,2,4,0.073,0.06799999999999999,0.005,"[5, 1, 12, 3, 9]",5,5,3,18271,15,218,203,True,1,8,traffic-light-mouselab,5,206141,0.0-3.0-2.0,60d2a1e4c92d4f5b911365eb,60ca52d74ed66c9bb11e25ac,60e605ae2de75333d2835c63,False,8,1,6,8,2,5,30
traffic-light-mouselab,False,3,1,"[0, 2, 4, 11, 11, 11, 13, 13, 13, 7, 7, 7, 5, 5, 5]","[[6, 7, 6, 8, 4], [3, 9, 4, 4, 4], [6, 6, 5, 6, 2]]","[[1, 1, 1, 1, 1], [3, 3, 3, 3, 3], [3, 3, 3, 3, 3]]","[[0, 1, 0, 1, 0], [0, 3, 0, 3, 3], [3, 0, 3, 0, 3]]","[19, 6, 5]",19,18,3,2,0.054,0.049,0.005,"[0, 2, 4, 11, 13, 7, 5]",7,5,3,20415,15,163,148,False,0,6,traffic-light-mouselab,7,234694,0.0-3.0-4.0,60d2a1e4c92d4f5b911365eb,60ca52d74ed66c9bb11e25ac,60e605ae2de75333d2835c63,False,6,0,3,19,3,5,30
traffic-light-mouselab,False,3,1,"[5, 5, 5, 6, 6, 6, 7, 7, 7, 8, 8, 8, 9, 9, 9, 1, 1, 1, 2, 2, 2, 4, 4, 4]","[[7, 5, 7, 6, 3], [3, 7, 7, 6, 7], [5, 5, 7, 4, 4]]","[[3, 3, 3, 3, 3], [3, 3, 3, 3, 3], [3, 3, 3, 3, 3]]","[[3, 0, 0, 3, 0], [0, 0, 0, 0, 0], [3, 3, 3, 3, 3]]","[1, 28, 1]",28,36,4,2,0.07,0.062000000000000006,0.008,"[5, 6, 7, 8, 9, 1, 2, 4]",8,5,3,19937,24,210,186,True,1,7,traffic-light-mouselab,8,256758,0.0-3.0-5.0,60d2a1e4c92d4f5b911365eb,60ca52d74ed66c9bb11e25ac,60e605ae2de75333d2835c63,False,7,1,15,28,5,5,30
traffic-light-mouselab,False,3,1,"[5, 5, 5, 7, 7, 7, 9, 9, 9, 6, 6, 6, 8, 8, 8, 1, 1, 1, 3, 3, 3, 4, 4, 4, 14, 14, 14, 11, 11, 11]","[[3, 4, 5, 4, 5], [3, 7, 5, 6, 6], [5, 6, 6, 6, 7]]","[[3, 3, 3, 3, 3], [3, 3, 3, 3, 3], [3, 3, 3, 3, 3]]","[[3, 0, 3, 0, 0], [0, 0, 0, 0, 0], [3, 0, 3, 3, 0]]","[3, 26, 1]",26,32,5,1,0.067,0.057,0.01,"[5, 7, 9, 6, 8, 1, 3, 4, 14, 11]",10,5,3,23592,30,200,170,True,1,7,traffic-light-mouselab,9,284166,0.0-3.0-6.0,60d2a1e4c92d4f5b911365eb,60ca52d74ed66c9bb11e25ac,60e605ae2de75333d2835c63,False,7,1,15,26,5,5,30
traffic-light-mouselab,False,3,1,"[10, 10, 10, 12, 12, 12, 14, 14, 14, 7, 7, 7, 5, 5, 5]","[[6, 8, 6, 6, 7], [4, 2, 9, 5, 3], [7, 3, 7, 8, 6]]","[[3, 3, 3, 3, 3], [3, 3, 3, 3, 3], [3, 3, 3, 3, 3]]","[[3, 3, 3, 3, 3], [0, 3, 0, 3, 3], [0, 3, 0, 3, 0]]","[2, 8, 20]",20,20,6,2,0.075,0.06999999999999999,0.005,"[10, 12, 14, 7, 5]",5,5,3,11209,15,224,209,True,2,7,traffic-light-mouselab,10,296770,0.0-3.0-7.0,60d2a1e4c92d4f5b911365eb,60ca52d74ed66c9bb11e25ac,60e605ae2de75333d2835c63,False,7,0,9,20,3,5,30
traffic-light-mouselab,False,3,1,"[0, 0, 0, 1, 1, 1, 2, 2, 2, 3, 3, 3, 4, 4, 4, 6, 6, 6, 8, 8, 8]","[[6, 7, 4, 7, 6], [3, 6, 2, 5, 7], [6, 10, 3, 3, 6]]","[[3, 3, 3, 3, 3], [3, 3, 3, 3, 3], [3, 3, 3, 3, 3]]","[[0, 0, 0, 0, 0], [3, 0, 3, 0, 3], [3, 3, 3, 3, 3]]","[14, 12, 4]",12,12,7,1,0.07,0.063,0.007,"[0, 1, 2, 3, 4, 6, 8]",7,5,3,11704,21,210,189,True,1,6,traffic-light-mouselab,11,310290,0.0-3.0-8.0,60d2a1e4c92d4f5b911365eb,60ca52d74ed66c9bb11e25ac,60e605ae2de75333d2835c63,False,6,0,6,12,2,5,30
traffic-light-mouselab,False,3,1,"[10, 10, 10, 12, 12, 12, 14, 14, 14, 7, 7, 7]","[[5, 2, 6, 7, 5], [6, 4, 4, 3, 7], [4, 5, 8, 4, 5]]","[[3, 3, 3, 3, 3], [3, 3, 3, 3, 3], [3, 3, 3, 3, 3]]","[[3, 3, 3, 3, 3], [3, 3, 0, 3, 3], [0, 3, 0, 3, 0]]","[8, 1, 21]",8,22,8,2,0.073,0.06899999999999999,0.004,"[10, 12, 14, 7]",4,5,3,8487,12,220,208,True,0,6,traffic-light-mouselab,12,319956,0.0-3.0-9.0,60d2a1e4c92d4f5b911365eb,60ca52d74ed66c9bb11e25ac,60e605ae2de75333d2835c63,False,6,0,0,8,0,5,30
traffic-light-mouselab,False,3,1,"[7, 2, 2, 2, 0, 0, 0, 1, 1, 1, 3, 3, 3, 4, 4, 4]","[[6, 6, 4, 7, 3], [1, 6, 5, 5, 4], [7, 5, 6, 6, 4]]","[[3, 3, 3, 3, 3], [1, 1, 1, 1, 1], [3, 3, 3, 3, 3]]","[[0, 0, 0, 0, 0], [1, 1, 0, 1, 1], [3, 3, 3, 3, 3]]","[19, 5, 6]",5,18,9,3,0.065,0.059666666666666666,0.005333333333333333,"[7, 2, 0, 1, 3, 4]",6,5,3,10541,16,194,178,False,1,5,traffic-light-mouselab,13,331980,0.0-3.0-10.0,60d2a1e4c92d4f5b911365eb,60ca52d74ed66c9bb11e25ac,60e605ae2de75333d2835c63,False,5,0,1,5,1,5,30
traffic-light-mouselab,False,3,1,"[10, 10, 10, 12, 12, 12, 14, 14, 14, 5, 5, 5, 7, 7, 7, 0, 0, 0, 2, 2, 2]","[[3, 4, 5, 4, 5], [6, 5, 6, 4, 6], [7, 3, 7, 6, 2]]","[[3, 3, 3, 3, 3], [3, 3, 3, 3, 3], [3, 3, 3, 3, 3]]","[[0, 3, 0, 3, 3], [0, 3, 0, 3, 3], [0, 3, 0, 3, 0]]","[4, 5, 21]",4,22,10,2,0.066,0.059000000000000004,0.007,"[10, 12, 14, 5, 7, 0, 2]",7,5,3,16825,21,197,176,True,0,5,traffic-light-mouselab,14,349976,0.0-3.0-11.0,60d2a1e4c92d4f5b911365eb,60ca52d74ed66c9bb11e25ac,60e605ae2de75333d2835c63,False,5,1,6,4,2,5,30
traffic-light-mouselab,False,3,1,"[10, 11, 12, 13, 14, 9, 9, 9, 4, 4, 4]","[[4, 6, 5, 2, 8], [6, 6, 7, 1, 6], [3, 5, 3, 5, 7]]","[[3, 3, 3, 3, 3], [3, 3, 3, 3, 3], [1, 1, 1, 1, 1]]","[[3, 3, 3, 3, 0], [3, 3, 3, 3, 0], [0, 0, 0, 0, 0]]","[16, 1, 13]",13,18,11,4,0.075,0.07133333333333333,0.0036666666666666666,"[10, 11, 12, 13, 14, 9, 4]",7,5,3,9053,11,225,214,False,2,7,traffic-light-mouselab,15,361052,0.0-3.0-12.0,60d2a1e4c92d4f5b911365eb,60ca52d74ed66c9bb11e25ac,60e605ae2de75333d2835c63,False,7,1,5,13,5,5,30
traffic-light-mouselab,False,3,1,"[0, 1, 2, 3, 4, 11, 11, 11, 13, 13, 13]","[[4, 7, 3, 7, 6], [7, 4, 4, 4, 6], [4, 6, 5, 4, 4]]","[[1, 1, 1, 1, 1], [3, 3, 3, 3, 3], [3, 3, 3, 3, 3]]","[[0, 0, 0, 0, 0], [3, 3, 3, 3, 3], [3, 0, 3, 0, 3]]","[11, 6, 13]",11,8,12,1,0.06,0.05633333333333333,0.0036666666666666666,"[0, 1, 2, 3, 4, 11, 13]",7,5,3,8678,11,179,168,False,0,7,traffic-light-mouselab,16,370623,0.0-3.0-13.0,60d2a1e4c92d4f5b911365eb,60ca52d74ed66c9bb11e25ac,60e605ae2de75333d2835c63,False,7,1,5,11,5,5,30
traffic-light-mouselab,False,3,1,"[0, 0, 0, 1, 1, 1, 2, 2, 2, 3, 3, 3, 4, 4, 4, 6, 6, 6, 7, 7, 7]","[[6, 8, 8, 3, 3], [2, 6, 5, 2, 6], [8, 6, 7, 8, 5]]","[[3, 3, 3, 3, 3], [3, 3, 3, 3, 3], [3, 3, 3, 3, 3]]","[[0, 0, 0, 0, 0], [3, 0, 0, 3, 3], [3, 3, 3, 3, 3]]","[14, 6, 10]",10,8,13,1,0.069,0.062000000000000006,0.007,"[0, 1, 2, 3, 4, 6, 7]",7,5,3,11227,21,208,187,True,2,6,traffic-light-mouselab,17,382965,0.0-3.0-14.0,60d2a1e4c92d4f5b911365eb,60ca52d74ed66c9bb11e25ac,60e605ae2de75333d2835c63,False,6,0,0,10,0,5,30
traffic-light-mouselab,False,3,1,"[10, 10, 10]","[[4, 4, 4, 3, 7], [3, 4, 7, 5, 3], [10, 3, 5, 5, 8]]","[[3, 3, 3, 3, 3], [3, 3, 3, 3, 3], [3, 3, 3, 3, 3]]","[[3, 3, 3, 3, 3], [3, 3, 3, 3, 3], [0, 3, 3, 3, 3]]","[9, 7, 14]",14,8,14,0,0.066,0.065,0.001,[10],1,5,3,16774,3,197,194,True,2,10,traffic-light-mouselab,18,401062,0.0-3.0-15.0,60d2a1e4c92d4f5b911365eb,60ca52d74ed66c9bb11e25ac,60e605ae2de75333d2835c63,False,10,1,3,14,1,5,30
traffic-light-mouselab,False,3,1,"[5, 5, 5, 6, 6, 6, 7, 7, 7, 8, 8, 8, 9, 9, 9]","[[6, 4, 4, 5, 5], [4, 4, 5, 8, 5], [5, 3, 8, 5, 5]]","[[3, 3, 3, 3, 3], [3, 3, 3, 3, 3], [3, 3, 3, 3, 3]]","[[3, 3, 3, 3, 3], [0, 0, 0, 0, 0], [3, 3, 3, 3, 3]]","[10, 16, 4]",16,12,15,3,0.066,0.061000000000000006,0.005,"[5, 6, 7, 8, 9]",5,5,3,7198,15,198,183,True,1,8,traffic-light-mouselab,19,409327,0.0-3.0-16.0,60d2a1e4c92d4f5b911365eb,60ca52d74ed66c9bb11e25ac,60e605ae2de75333d2835c63,False,8,1,15,16,5,5,30
traffic-light-mouselab,False,3,1,"[5, 5, 5, 6, 6, 6, 7, 7, 7, 8, 8, 8, 9, 9, 9, 1, 1, 1, 10, 10, 10, 0, 0, 0, 11, 11, 11]","[[6, 7, 4, 7, 6], [8, 8, 5, 4, 5], [5, 5, 5, 5, 5]]","[[3, 3, 3, 3, 3], [3, 3, 3, 3, 3], [3, 3, 3, 3, 3]]","[[0, 0, 3, 3, 3], [0, 0, 0, 0, 0], [0, 0, 3, 3, 3]]","[2, 24, 4]",24,28,16,1,0.075,0.066,0.009,"[5, 6, 7, 8, 9, 1, 10, 0, 11]",9,5,3,17283,27,226,199,True,1,8,traffic-light-mouselab,20,427893,0.0-3.0-17.0,60d2a1e4c92d4f5b911365eb,60ca52d74ed66c9bb11e25ac,60e605ae2de75333d2835c63,False,8,1,15,24,5,5,30
traffic-light-mouselab,False,3,1,"[5, 6, 7, 8, 9, 10, 10, 10, 14, 14, 14, 0, 0, 0, 4, 4, 4]","[[2, 3, 6, 7, 6], [6, 5, 5, 5, 6], [5, 6, 6, 5, 3]]","[[3, 3, 3, 3, 3], [1, 1, 1, 1, 1], [3, 3, 3, 3, 3]]","[[0, 3, 3, 3, 0], [0, 0, 0, 0, 0], [0, 3, 3, 3, 0]]","[9, 17, 4]",17,14,17,4,0.056,0.050333333333333334,0.005666666666666667,"[5, 6, 7, 8, 9, 10, 14, 0, 4]",9,5,3,10931,17,168,151,False,1,6,traffic-light-mouselab,21,440075,0.0-3.0-18.0,60d2a1e4c92d4f5b911365eb,60ca52d74ed66c9bb11e25ac,60e605ae2de75333d2835c63,False,6,1,5,17,5,5,30
traffic-light-mouselab,False,3,1,"[5, 6, 7, 8, 9, 2, 2, 2, 2, 0, 0, 0, 10, 10, 10, 12, 12, 12]","[[5, 4, 5, 5, 5], [6, 3, 6, 3, 4], [9, 5, 3, 5, 3]]","[[3, 3, 3, 3, 3], [1, 1, 1, 1, 1], [3, 3, 3, 3, 3]]","[[0, 3, 0, 3, 3], [0, 0, 0, 0, 0], [0, 3, 0, 3, 3]]","[15, 7, 8]",7,10,18,0,0.063,0.05733333333333333,0.005666666666666667,"[5, 6, 7, 8, 9, 2, 0, 10, 12]",9,5,3,12660,17,189,172,False,1,6,traffic-light-mouselab,22,453923,0.0-3.0-19.0,60d2a1e4c92d4f5b911365eb,60ca52d74ed66c9bb11e25ac,60e605ae2de75333d2835c63,False,6,1,5,7,5,5,30
traffic-light-mouselab,False,3,1,"[10, 10, 10, 11, 11, 11, 12, 12, 12, 13, 13, 13, 14, 14, 14]","[[9, 4, 5, 2, 6], [5, 8, 3, 1, 4], [6, 5, 6, 5, 8]]","[[3, 3, 3, 3, 3], [3, 3, 3, 3, 3], [3, 3, 3, 3, 3]]","[[3, 3, 3, 3, 3], [3, 3, 3, 3, 3], [0, 0, 0, 0, 0]]","[5, 3, 22]",22,24,19,4,0.073,0.06799999999999999,0.005,"[10, 11, 12, 13, 14]",5,5,3,7190,15,218,203,True,2,8,traffic-light-mouselab,23,462363,0.0-3.0-20.0,60d2a1e4c92d4f5b911365eb,60ca52d74ed66c9bb11e25ac,60e605ae2de75333d2835c63,False,8,1,15,22,5,5,30
traffic-light-mouselab,False,3,1,"[5, 6, 7, 8, 9]","[[5, 6, 3, 2, 5], [6, 5, 4, 4, 5], [5, 6, 6, 6, 6]]","[[3, 3, 3, 3, 3], [1, 1, 1, 1, 1], [3, 3, 3, 3, 3]]","[[3, 3, 3, 3, 3], [0, 0, 0, 0, 0], [3, 3, 3, 3, 3]]","[1, 25, 4]",25,30,20,0,0.058,0.05633333333333334,0.0016666666666666668,"[5, 6, 7, 8, 9]",5,5,3,4968,5,175,170,False,1,6,traffic-light-mouselab,24,468533,0.0-3.0-21.0,60d2a1e4c92d4f5b911365eb,60ca52d74ed66c9bb11e25ac,60e605ae2de75333d2835c63,False,6,1,5,25,5,5,30
traffic-light-mouselab,False,3,1,"[0, 1, 2, 3, 4]","[[6, 9, 7, 6, 3], [4, 6, 4, 7, 6], [6, 8, 4, 3, 6]]","[[1, 1, 1, 1, 1], [3, 3, 3, 3, 3], [3, 3, 3, 3, 3]]","[[0, 0, 0, 0, 0], [3, 3, 3, 3, 3], [3, 3, 3, 3, 3]]","[9, 9, 12]",9,4,21,1,0.077,0.07533333333333334,0.0016666666666666668,"[0, 1, 2, 3, 4]",5,5,3,5191,5,231,226,False,0,9,traffic-light-mouselab,25,474823,0.0-3.0-22.0,60d2a1e4c92d4f5b911365eb,60ca52d74ed66c9bb11e25ac,60e605ae2de75333d2835c63,False,9,1,5,9,5,5,30
traffic-light-mouselab,False,3,1,"[5, 6, 7, 8, 9]","[[9, 5, 3, 5, 7], [6, 3, 5, 5, 7], [6, 6, 7, 8, 5]]","[[3, 3, 3, 3, 3], [1, 1, 1, 1, 1], [3, 3, 3, 3, 3]]","[[3, 3, 3, 3, 3], [0, 0, 0, 0, 0], [3, 3, 3, 3, 3]]","[25, 3, 2]",3,30,22,4,0.069,0.06733333333333334,0.0016666666666666668,"[5, 6, 7, 8, 9]",5,5,3,4928,5,206,201,False,1,7,traffic-light-mouselab,26,480787,0.0-3.0-23.0,60d2a1e4c92d4f5b911365eb,60ca52d74ed66c9bb11e25ac,60e605ae2de75333d2835c63,False,7,1,5,3,5,5,30
traffic-light-mouselab,False,3,1,"[5, 6, 8, 7, 9]","[[3, 2, 2, 3, 3], [4, 3, 5, 7, 4], [5, 6, 5, 7, 6]]","[[3, 3, 3, 3, 3], [1, 1, 1, 1, 1], [3, 3, 3, 3, 3]]","[[3, 3, 3, 3, 3], [0, 0, 0, 0, 0], [3, 3, 3, 3, 3]]","[2, 27, 1]",27,34,23,3,0.067,0.06533333333333334,0.0016666666666666668,"[5, 6, 8, 7, 9]",5,5,3,4919,5,202,197,False,1,7,traffic-light-mouselab,27,487284,0.0-3.0-24.0,60d2a1e4c92d4f5b911365eb,60ca52d74ed66c9bb11e25ac,60e605ae2de75333d2835c63,False,7,1,5,27,5,5,30
traffic-light-mouselab,False,3,1,"[10, 11, 12, 13, 14, 1, 1, 1, 4, 4, 4]","[[6, 7, 5, 3, 3], [6, 8, 6, 1, 6], [2, 7, 5, 6, 7]]","[[3, 3, 3, 3, 3], [3, 3, 3, 3, 3], [1, 1, 1, 1, 1]]","[[3, 0, 3, 3, 0], [3, 3, 3, 3, 3], [0, 0, 0, 0, 0]]","[20, 9, 1]",1,20,24,1,0.073,0.06933333333333333,0.0036666666666666666,"[10, 11, 12, 13, 14, 1, 4]",7,5,3,9347,11,219,208,False,2,7,traffic-light-mouselab,28,497588,0.0-3.0-25.0,60d2a1e4c92d4f5b911365eb,60ca52d74ed66c9bb11e25ac,60e605ae2de75333d2835c63,False,7,1,5,1,5,5,30
traffic-light-mouselab,False,3,1,"[10, 10, 10, 11, 11, 11, 12, 12, 12, 13, 13, 13, 14, 14, 14]","[[8, 7, 3, 4, 4], [3, 4, 3, 6, 6], [6, 7, 0, 6, 1]]","[[3, 3, 3, 3, 3], [3, 3, 3, 3, 3], [3, 3, 3, 3, 3]]","[[3, 3, 3, 3, 3], [3, 3, 3, 3, 3], [0, 0, 0, 0, 0]]","[1, 6, 23]",6,26,25,1,0.064,0.059000000000000004,0.005,"[10, 11, 12, 13, 14]",5,5,3,10119,15,192,177,True,1,4,traffic-light-mouselab,29,508694,0.0-3.0-26.0,60d2a1e4c92d4f5b911365eb,60ca52d74ed66c9bb11e25ac,60e605ae2de75333d2835c63,False,4,0,0,6,0,5,30
traffic-light-mouselab,False,3,1,"[5, 6, 7, 8, 9, 14, 14, 14, 10, 10, 10]","[[0, 4, 5, 4, 3], [7, 2, 5, 3, 7], [0, 7, 5, 6, 4]]","[[3, 3, 3, 3, 3], [1, 1, 1, 1, 1], [3, 3, 3, 3, 3]]","[[3, 3, 3, 3, 3], [0, 0, 0, 0, 0], [0, 3, 3, 3, 0]]","[1, 21, 8]",21,22,26,4,0.061,0.05733333333333333,0.0036666666666666666,"[5, 6, 7, 8, 9, 14, 10]",7,5,3,9053,11,182,171,False,1,7,traffic-light-mouselab,30,518854,0.0-3.0-27.0,60d2a1e4c92d4f5b911365eb,60ca52d74ed66c9bb11e25ac,60e605ae2de75333d2835c63,False,7,1,5,21,5,5,30
traffic-light-mouselab,False,3,1,"[10, 10, 10, 11, 11, 11, 12, 12, 12, 13, 13, 13, 14, 14, 14, 1, 1, 1, 2, 2, 2]","[[10, 5, 4, 4, 6], [2, 6, 5, 9, 5], [3, 7, 7, 6, 6]]","[[3, 3, 3, 3, 3], [3, 3, 3, 3, 3], [3, 3, 3, 3, 3]]","[[3, 0, 0, 3, 3], [3, 3, 3, 3, 3], [0, 0, 0, 0, 0]]","[10, 2, 18]",18,16,27,1,0.063,0.056,0.007,"[10, 11, 12, 13, 14, 1, 2]",7,5,3,10199,21,188,167,True,2,7,traffic-light-mouselab,31,529938,0.0-3.0-28.0,60d2a1e4c92d4f5b911365eb,60ca52d74ed66c9bb11e25ac,60e605ae2de75333d2835c63,False,7,1,15,18,5,5,30
traffic-light-mouselab,False,3,1,"[0, 1, 2, 3, 4]","[[5, 4, 6, 9, 4], [7, 6, 5, 5, 3], [4, 7, 8, 3, 5]]","[[1, 1, 1, 1, 1], [3, 3, 3, 3, 3], [3, 3, 3, 3, 3]]","[[0, 0, 0, 0, 0], [3, 3, 3, 3, 3], [3, 3, 3, 3, 3]]","[23, 6, 1]",23,26,28,3,0.08,0.07833333333333334,0.0016666666666666668,"[0, 1, 2, 3, 4]",5,5,3,4530,5,240,235,False,0,9,traffic-light-mouselab,32,535448,0.0-3.0-29.0,60d2a1e4c92d4f5b911365eb,60ca52d74ed66c9bb11e25ac,60e605ae2de75333d2835c63,False,9,1,5,23,5,5,30
traffic-light-mouselab,False,3,1,"[0, 1, 2, 3, 4]","[[7, 6, 9, 1, 5], [4, 5, 5, 4, 4], [5, 6, 5, 9, 8]]","[[1, 1, 1, 1, 1], [3, 3, 3, 3, 3], [3, 3, 3, 3, 3]]","[[0, 0, 0, 0, 0], [3, 3, 3, 3, 3], [3, 3, 3, 3, 3]]","[15, 1, 14]",15,18,29,2,0.07,0.06833333333333334,0.0016666666666666668,"[0, 1, 2, 3, 4]",5,5,3,4626,5,210,205,False,0,9,traffic-light-mouselab,33,541085,0.0-3.0-30.0,60d2a1e4c92d4f5b911365eb,60ca52d74ed66c9bb11e25ac,60e605ae2de75333d2835c63,False,9,1,5,15,5,5,30
traffic-light-mouselab,False,3,1,"[0, 0, 0, 1, 1, 1, 2, 2, 2, 3, 3, 3, 4, 4, 4]","[[7, 5, 6, 6, 3], [6, 5, 8, 6, 3], [3, 5, 5, 6, 6]]","[[3, 3, 3, 3, 3], [3, 3, 3, 3, 3], [3, 3, 3, 3, 3]]","[[0, 0, 0, 0, 0], [3, 3, 3, 3, 3], [3, 3, 3, 3, 3]]","[21, 2, 7]",2,22,30,0,0.06,0.055,0.005,"[0, 1, 2, 3, 4]",5,5,3,7142,15,180,165,True,1,6,traffic-light-mouselab,34,550425,0.0-3.0-31.0,60d2a1e4c92d4f5b911365eb,60ca52d74ed66c9bb11e25ac,60e605ae2de75333d2835c63,False,6,0,0,2,0,5,30
traffic-light-mouselab,True,3,1,"[4, 1, 10, 13, 2, 14, 2, 1, 1, 2, 4, 4, 13, 13, 10, 10]","[[4, 5, 2, 4, 6], [6, 6, 5, 5, 7], [6, 7, 1, 7, 4]]","[[3, 3, 3, 3, 3], [1, 1, 1, 1, 1], [3, 3, 3, 3, 3]]","[[3, 0, 0, 3, 0], [1, 1, 1, 1, 1], [0, 3, 3, 0, 2]]","[18, 10, 2]",10,16,1,4,0.062,0.056666666666666664,0.005333333333333333,"[1, 2, 4, 13, 10]",5,5,3,98889,16,186,170,False,1,7,traffic-light-mouselab,4,608069,0.0-3.0-1.0,5f761f4bf4c10107d66dfc96,60ca52d74ed66c9bb11e25ac,60e603c660ef9e9eae93f8c6,False,7,1,0,10,0,6,30
traffic-light-mouselab,True,3,1,"[0, 0, 0, 0, 11, 11, 11, 2, 2, 2, 14, 14, 14, 4, 4, 4, 8, 8, 8, 8, 10, 10, 10, 5, 5, 5, 1, 1, 1, 6, 6, 6, 7, 7, 7, 3, 3, 3, 9, 9, 9, 13, 13, 13, 12, 12, 12]","[[5, 4, 3, 6, 6], [3, 7, 4, 5, 4], [5, 4, 2, 2, 4]]","[[3, 3, 3, 3, 3], [3, 3, 3, 3, 3], [3, 3, 3, 3, 3]]","[[0, 0, 0, 0, 0], [0, 0, 0, 0, 0], [0, 0, 0, 0, 0]]","[16, 10, 4]",16,12,2,2,0.032,0.017,0.015,"[0, 11, 2, 14, 4, 8, 10, 5, 1, 6, 7, 3, 9, 13, 12]",15,5,3,61931,45,96,51,True,0,3,traffic-light-mouselab,5,678168,0.0-3.0-2.0,5f761f4bf4c10107d66dfc96,60ca52d74ed66c9bb11e25ac,60e603c660ef9e9eae93f8c6,False,3,0,16,16,5,6,30
traffic-light-mouselab,False,3,1,[],"[[3, 4, 2, 4, 8], [3, 5, 3, 6, 4], [5, 1, 7, 5, 5]]","[[3, 3, 3, 3, 3], [1, 1, 1, 1, 1], [3, 3, 3, 3, 3]]","[[3, 3, 3, 3, 3], [1, 1, 1, 1, 1], [3, 3, 3, 3, 3]]","[14, 15, 1]",15,18,3,0,0.031,0.031,0.0,[],0,5,3,7078,0,92,92,False,1,3,traffic-light-mouselab,7,697779,0.0-3.0-4.0,5f761f4bf4c10107d66dfc96,60ca52d74ed66c9bb11e25ac,60e603c660ef9e9eae93f8c6,False,3,0,0,15,0,6,30
traffic-light-mouselab,False,3,1,[],"[[10, 4, 3, 4, 7], [5, 5, 5, 6, 6], [5, 5, 4, 6, 4]]","[[3, 3, 3, 3, 3], [1, 1, 1, 1, 1], [3, 3, 3, 3, 3]]","[[3, 3, 3, 3, 3], [1, 1, 1, 1, 1], [3, 3, 3, 3, 3]]","[4, 23, 3]",23,26,4,2,0.046,0.046,0.0,[],0,5,3,3002,0,139,139,False,1,5,traffic-light-mouselab,8,705627,0.0-3.0-5.0,5f761f4bf4c10107d66dfc96,60ca52d74ed66c9bb11e25ac,60e603c660ef9e9eae93f8c6,False,5,0,0,23,0,6,30
traffic-light-mouselab,False,3,1,[],"[[5, 4, 5, 8, 6], [3, 5, 7, 7, 1], [9, 4, 6, 7, 5]]","[[3, 3, 3, 3, 3], [3, 3, 3, 3, 3], [3, 3, 3, 3, 3]]","[[3, 3, 3, 3, 3], [3, 3, 3, 3, 3], [3, 3, 3, 3, 3]]","[18, 2, 10]",18,16,5,1,0.041,0.041,0.0,[],0,5,3,2480,0,122,122,True,0,4,traffic-light-mouselab,9,711210,0.0-3.0-6.0,5f761f4bf4c10107d66dfc96,60ca52d74ed66c9bb11e25ac,60e603c660ef9e9eae93f8c6,False,4,0,0,18,0,6,30
traffic-light-mouselab,False,3,1,[],"[[5, 5, 6, 6, 6], [7, 5, 7, 8, 3], [5, 5, 3, 5, 5]]","[[3, 3, 3, 3, 3], [3, 3, 3, 3, 3], [3, 3, 3, 3, 3]]","[[3, 3, 3, 3, 3], [3, 3, 3, 3, 3], [3, 3, 3, 3, 3]]","[5, 14, 11]",14,10,6,4,0.042,0.042,0.0,[],0,5,3,2568,0,127,127,True,1,3,traffic-light-mouselab,10,717370,0.0-3.0-7.0,5f761f4bf4c10107d66dfc96,60ca52d74ed66c9bb11e25ac,60e603c660ef9e9eae93f8c6,False,3,0,0,14,0,6,30
traffic-light-mouselab,False,3,1,[],"[[4, 1, 3, 5, 5], [5, 6, 3, 6, 6], [4, 4, 3, 4, 5]]","[[3, 3, 3, 3, 3], [3, 3, 3, 3, 3], [3, 3, 3, 3, 3]]","[[3, 3, 3, 3, 3], [3, 3, 3, 3, 3], [3, 3, 3, 3, 3]]","[3, 19, 8]",8,18,7,4,0.056,0.056,0.0,[],0,5,3,2840,0,169,169,True,2,5,traffic-light-mouselab,11,723153,0.0-3.0-8.0,5f761f4bf4c10107d66dfc96,60ca52d74ed66c9bb11e25ac,60e603c660ef9e9eae93f8c6,False,5,1,0,8,0,6,30
traffic-light-mouselab,False,3,1,[],"[[5, 6, 7, 3, 4], [3, 5, 6, 8, 6], [4, 7, 4, 2, 5]]","[[3, 3, 3, 3, 3], [3, 3, 3, 3, 3], [1, 1, 1, 1, 1]]","[[3, 3, 3, 3, 3], [3, 3, 3, 3, 3], [1, 1, 1, 1, 1]]","[3, 2, 25]",25,30,8,0,0.04,0.04,0.0,[],0,5,3,2628,0,121,121,False,2,4,traffic-light-mouselab,12,729392,0.0-3.0-9.0,5f761f4bf4c10107d66dfc96,60ca52d74ed66c9bb11e25ac,60e603c660ef9e9eae93f8c6,False,4,0,0,25,0,6,30
traffic-light-mouselab,False,3,1,[],"[[4, 9, 4, 8, 2], [5, 8, 9, 6, 5], [4, 4, 7, 3, 1]]","[[3, 3, 3, 3, 3], [3, 3, 3, 3, 3], [3, 3, 3, 3, 3]]","[[3, 3, 3, 3, 3], [3, 3, 3, 3, 3], [3, 3, 3, 3, 3]]","[6, 2, 22]",22,24,9,1,0.053,0.053,0.0,[],0,5,3,2125,0,158,158,True,2,4,traffic-light-mouselab,13,740887,0.0-3.0-10.0,5f761f4bf4c10107d66dfc96,60ca52d74ed66c9bb11e25ac,60e603c660ef9e9eae93f8c6,False,4,0,0,22,0,6,30
traffic-light-mouselab,False,3,1,[],"[[4, 4, 5, 8, 1], [8, 4, 6, 2, 3], [5, 4, 6, 5, 5]]","[[3, 3, 3, 3, 3], [3, 3, 3, 3, 3], [3, 3, 3, 3, 3]]","[[3, 3, 3, 3, 3], [3, 3, 3, 3, 3], [3, 3, 3, 3, 3]]","[13, 1, 16]",16,18,10,2,0.056,0.056,0.0,[],0,5,3,2418,0,167,167,True,2,6,traffic-light-mouselab,14,747775,0.0-3.0-11.0,5f761f4bf4c10107d66dfc96,60ca52d74ed66c9bb11e25ac,60e603c660ef9e9eae93f8c6,False,6,1,0,16,0,6,30
traffic-light-mouselab,False,3,1,[],"[[2, 7, 5, 7, 5], [7, 4, 3, 6, 7], [4, 6, 5, 4, 5]]","[[3, 3, 3, 3, 3], [1, 1, 1, 1, 1], [3, 3, 3, 3, 3]]","[[3, 3, 3, 3, 3], [1, 1, 1, 1, 1], [3, 3, 3, 3, 3]]","[4, 5, 21]",5,22,11,3,0.047,0.047,0.0,[],0,5,3,2205,0,142,142,False,1,6,traffic-light-mouselab,15,753577,0.0-3.0-12.0,5f761f4bf4c10107d66dfc96,60ca52d74ed66c9bb11e25ac,60e603c660ef9e9eae93f8c6,False,6,0,0,5,0,6,30
traffic-light-mouselab,False,3,1,[],"[[5, 4, 5, 5, 5], [1, 3, 6, 4, 6], [7, 2, 6, 4, 3]]","[[1, 1, 1, 1, 1], [3, 3, 3, 3, 3], [3, 3, 3, 3, 3]]","[[1, 1, 1, 1, 1], [3, 3, 3, 3, 3], [3, 3, 3, 3, 3]]","[13, 14, 3]",13,14,12,4,0.053,0.053,0.0,[],0,5,3,3176,0,158,158,False,0,5,traffic-light-mouselab,16,761422,0.0-3.0-13.0,5f761f4bf4c10107d66dfc96,60ca52d74ed66c9bb11e25ac,60e603c660ef9e9eae93f8c6,False,5,1,0,13,0,6,30
traffic-light-mouselab,False,3,1,[],"[[4, 5, 6, 4, 6], [3, 7, 5, 4, 4], [4, 8, 4, 4, 4]]","[[3, 3, 3, 3, 3], [3, 3, 3, 3, 3], [1, 1, 1, 1, 1]]","[[3, 3, 3, 3, 3], [3, 3, 3, 3, 3], [1, 1, 1, 1, 1]]","[1, 2, 27]",27,34,13,2,0.041,0.041,0.0,[],0,5,3,2801,0,124,124,False,2,4,traffic-light-mouselab,17,767529,0.0-3.0-14.0,5f761f4bf4c10107d66dfc96,60ca52d74ed66c9bb11e25ac,60e603c660ef9e9eae93f8c6,False,4,0,0,27,0,6,30
traffic-light-mouselab,False,3,1,[],"[[5, 4, 5, 4, 5], [8, 6, 5, 3, 7], [9, 9, 6, 6, 7]]","[[3, 3, 3, 3, 3], [3, 3, 3, 3, 3], [3, 3, 3, 3, 3]]","[[3, 3, 3, 3, 3], [3, 3, 3, 3, 3], [3, 3, 3, 3, 3]]","[8, 18, 4]",4,16,14,0,0.073,0.073,0.0,[],0,5,3,1820,0,220,220,True,2,9,traffic-light-mouselab,18,773328,0.0-3.0-15.0,5f761f4bf4c10107d66dfc96,60ca52d74ed66c9bb11e25ac,60e603c660ef9e9eae93f8c6,False,9,1,0,4,0,6,30
traffic-light-mouselab,False,3,1,[],"[[4, 5, 6, 7, 6], [5, 5, 5, 5, 6], [6, 5, 5, 4, 1]]","[[1, 1, 1, 1, 1], [3, 3, 3, 3, 3], [3, 3, 3, 3, 3]]","[[1, 1, 1, 1, 1], [3, 3, 3, 3, 3], [3, 3, 3, 3, 3]]","[19, 4, 7]",19,18,15,0,0.046,0.046,0.0,[],0,5,3,2332,0,138,138,False,0,4,traffic-light-mouselab,19,778460,0.0-3.0-16.0,5f761f4bf4c10107d66dfc96,60ca52d74ed66c9bb11e25ac,60e603c660ef9e9eae93f8c6,False,4,0,0,19,0,6,30
traffic-light-mouselab,False,3,1,[],"[[3, 8, 6, 6, 5], [3, 6, 4, 5, 6], [1, 4, 5, 7, 4]]","[[3, 3, 3, 3, 3], [3, 3, 3, 3, 3], [3, 3, 3, 3, 3]]","[[3, 3, 3, 3, 3], [3, 3, 3, 3, 3], [3, 3, 3, 3, 3]]","[28, 1, 1]",28,36,16,3,0.06,0.06,0.0,[],0,5,3,3417,0,180,180,True,0,6,traffic-light-mouselab,20,787464,0.0-3.0-17.0,5f761f4bf4c10107d66dfc96,60ca52d74ed66c9bb11e25ac,60e603c660ef9e9eae93f8c6,False,6,0,0,28,0,6,30
traffic-light-mouselab,False,3,1,[],"[[7, 7, 8, 6, 4], [6, 7, 4, 6, 5], [5, 5, 5, 3, 4]]","[[3, 3, 3, 3, 3], [3, 3, 3, 3, 3], [1, 1, 1, 1, 1]]","[[3, 3, 3, 3, 3], [3, 3, 3, 3, 3], [1, 1, 1, 1, 1]]","[6, 15, 9]",9,10,17,0,0.059,0.059,0.0,[],0,5,3,2605,0,177,177,False,2,5,traffic-light-mouselab,21,792641,0.0-3.0-18.0,5f761f4bf4c10107d66dfc96,60ca52d74ed66c9bb11e25ac,60e603c660ef9e9eae93f8c6,False,5,1,0,9,0,6,30
traffic-light-mouselab,False,3,1,[],"[[7, 4, 5, 5, 5], [5, 7, 4, 8, 7], [4, 3, 6, 6, 6]]","[[3, 3, 3, 3, 3], [3, 3, 3, 3, 3], [3, 3, 3, 3, 3]]","[[3, 3, 3, 3, 3], [3, 3, 3, 3, 3], [3, 3, 3, 3, 3]]","[20, 6, 4]",6,20,18,3,0.057,0.057,0.0,[],0,5,3,1381,0,172,172,True,1,8,traffic-light-mouselab,22,795962,0.0-3.0-19.0,5f761f4bf4c10107d66dfc96,60ca52d74ed66c9bb11e25ac,60e603c660ef9e9eae93f8c6,False,8,1,0,6,0,6,30
traffic-light-mouselab,False,3,1,[],"[[7, 4, 5, 4, 4], [4, 6, 5, 7, 6], [4, 3, 6, 5, 2]]","[[3, 3, 3, 3, 3], [3, 3, 3, 3, 3], [3, 3, 3, 3, 3]]","[[3, 3, 3, 3, 3], [3, 3, 3, 3, 3], [3, 3, 3, 3, 3]]","[4, 24, 2]",24,28,19,1,0.055,0.055,0.0,[],0,5,3,1668,0,166,166,True,1,6,traffic-light-mouselab,23,800128,0.0-3.0-20.0,5f761f4bf4c10107d66dfc96,60ca52d74ed66c9bb11e25ac,60e603c660ef9e9eae93f8c6,False,6,0,0,24,0,6,30
traffic-light-mouselab,False,3,1,[],"[[6, 5, 2, 4, 6], [5, 8, 5, 5, 6], [6, 5, 7, 5, 8]]","[[3, 3, 3, 3, 3], [3, 3, 3, 3, 3], [3, 3, 3, 3, 3]]","[[3, 3, 3, 3, 3], [3, 3, 3, 3, 3], [3, 3, 3, 3, 3]]","[20, 5, 5]",20,20,20,4,0.063,0.063,0.0,[],0,5,3,1749,0,190,190,True,0,6,traffic-light-mouselab,24,803630,0.0-3.0-21.0,5f761f4bf4c10107d66dfc96,60ca52d74ed66c9bb11e25ac,60e603c660ef9e9eae93f8c6,False,6,1,0,20,0,6,30
traffic-light-mouselab,False,3,1,[],"[[3, 9, 5, 5, 6], [1, 7, 2, 7, 5], [7, 3, 6, 2, 7]]","[[3, 3, 3, 3, 3], [3, 3, 3, 3, 3], [3, 3, 3, 3, 3]]","[[3, 3, 3, 3, 3], [3, 3, 3, 3, 3], [3, 3, 3, 3, 3]]","[11, 10, 9]",10,2,21,0,0.035,0.035,0.0,[],0,5,3,1841,0,106,106,True,1,1,traffic-light-mouselab,25,807622,0.0-3.0-22.0,5f761f4bf4c10107d66dfc96,60ca52d74ed66c9bb11e25ac,60e603c660ef9e9eae93f8c6,False,1,0,0,10,0,6,30
traffic-light-mouselab,False,3,1,[],"[[5, 8, 4, 3, 5], [3, 4, 3, 3, 3], [5, 2, 4, 4, 6]]","[[3, 3, 3, 3, 3], [1, 1, 1, 1, 1], [3, 3, 3, 3, 3]]","[[3, 3, 3, 3, 3], [1, 1, 1, 1, 1], [3, 3, 3, 3, 3]]","[6, 21, 3]",21,22,22,1,0.046,0.046,0.0,[],0,5,3,1341,0,138,138,False,1,4,traffic-light-mouselab,26,811092,0.0-3.0-23.0,5f761f4bf4c10107d66dfc96,60ca52d74ed66c9bb11e25ac,60e603c660ef9e9eae93f8c6,False,4,1,0,21,0,6,30
traffic-light-mouselab,False,3,1,[],"[[6, 8, 6, 3, 4], [3, 6, 5, 5, 6], [6, 3, 4, 3, 6]]","[[3, 3, 3, 3, 3], [3, 3, 3, 3, 3], [3, 3, 3, 3, 3]]","[[3, 3, 3, 3, 3], [3, 3, 3, 3, 3], [3, 3, 3, 3, 3]]","[7, 11, 12]",12,6,23,2,0.048,0.048,0.0,[],0,5,3,1597,0,145,145,True,2,4,traffic-light-mouselab,27,814858,0.0-3.0-24.0,5f761f4bf4c10107d66dfc96,60ca52d74ed66c9bb11e25ac,60e603c660ef9e9eae93f8c6,False,4,0,0,12,0,6,30
traffic-light-mouselab,False,3,1,[],"[[5, 8, 5, 9, 5], [5, 6, 4, 5, 5], [6, 5, 2, 6, 5]]","[[1, 1, 1, 1, 1], [3, 3, 3, 3, 3], [3, 3, 3, 3, 3]]","[[1, 1, 1, 1, 1], [3, 3, 3, 3, 3], [3, 3, 3, 3, 3]]","[3, 23, 4]",3,26,24,1,0.061,0.061,0.0,[],0,5,3,2767,0,182,182,False,0,8,traffic-light-mouselab,28,819946,0.0-3.0-25.0,5f761f4bf4c10107d66dfc96,60ca52d74ed66c9bb11e25ac,60e603c660ef9e9eae93f8c6,False,8,0,0,3,0,6,30
traffic-light-mouselab,False,3,1,[],"[[5, 6, 7, 6, 6], [3, 9, 6, 3, 1], [2, 4, 9, 5, 3]]","[[3, 3, 3, 3, 3], [3, 3, 3, 3, 3], [1, 1, 1, 1, 1]]","[[3, 3, 3, 3, 3], [3, 3, 3, 3, 3], [1, 1, 1, 1, 1]]","[1, 12, 17]",17,18,25,3,0.042,0.042,0.0,[],0,5,3,3742,0,127,127,False,2,5,traffic-light-mouselab,29,825585,0.0-3.0-26.0,5f761f4bf4c10107d66dfc96,60ca52d74ed66c9bb11e25ac,60e603c660ef9e9eae93f8c6,False,5,0,0,17,0,6,30
traffic-light-mouselab,False,3,1,[],"[[5, 5, 7, 4, 7], [5, 5, 0, 4, 6], [8, 4, 6, 6, 4]]","[[3, 3, 3, 3, 3], [3, 3, 3, 3, 3], [3, 3, 3, 3, 3]]","[[3, 3, 3, 3, 3], [3, 3, 3, 3, 3], [3, 3, 3, 3, 3]]","[2, 26, 2]",26,32,26,0,0.052,0.052,0.0,[],0,5,3,2153,0,156,156,True,1,5,traffic-light-mouselab,30,830656,0.0-3.0-27.0,5f761f4bf4c10107d66dfc96,60ca52d74ed66c9bb11e25ac,60e603c660ef9e9eae93f8c6,False,5,0,0,26,0,6,30
traffic-light-mouselab,False,3,1,[],"[[6, 8, 4, 2, 6], [8, 5, 7, 5, 3], [2, 6, 5, 4, 2]]","[[3, 3, 3, 3, 3], [1, 1, 1, 1, 1], [3, 3, 3, 3, 3]]","[[3, 3, 3, 3, 3], [1, 1, 1, 1, 1], [3, 3, 3, 3, 3]]","[8, 7, 15]",7,10,27,1,0.063,0.063,0.0,[],0,5,3,2048,0,189,189,False,1,5,traffic-light-mouselab,31,834916,0.0-3.0-28.0,5f761f4bf4c10107d66dfc96,60ca52d74ed66c9bb11e25ac,60e603c660ef9e9eae93f8c6,False,5,0,0,7,0,6,30
traffic-light-mouselab,False,3,1,[],"[[5, 5, 5, 7, 3], [4, 5, 5, 5, 5], [5, 5, 1, 4, 3]]","[[3, 3, 3, 3, 3], [3, 3, 3, 3, 3], [1, 1, 1, 1, 1]]","[[3, 3, 3, 3, 3], [3, 3, 3, 3, 3], [1, 1, 1, 1, 1]]","[10, 9, 11]",11,2,28,1,0.05,0.05,0.0,[],0,5,3,2681,0,150,150,False,2,5,traffic-light-mouselab,32,841937,0.0-3.0-29.0,5f761f4bf4c10107d66dfc96,60ca52d74ed66c9bb11e25ac,60e603c660ef9e9eae93f8c6,False,5,1,0,11,0,6,30
traffic-light-mouselab,False,3,1,[],"[[4, 3, 1, 2, 3], [4, 2, 3, 5, 6], [6, 4, 4, 4, 4]]","[[3, 3, 3, 3, 3], [3, 3, 3, 3, 3], [1, 1, 1, 1, 1]]","[[3, 3, 3, 3, 3], [3, 3, 3, 3, 3], [1, 1, 1, 1, 1]]","[15, 14, 1]",1,18,29,2,0.02,0.02,0.0,[],0,5,3,4866,0,61,61,False,2,4,traffic-light-mouselab,33,850085,0.0-3.0-30.0,5f761f4bf4c10107d66dfc96,60ca52d74ed66c9bb11e25ac,60e603c660ef9e9eae93f8c6,False,4,0,0,1,0,6,30
traffic-light-mouselab,False,3,1,[],"[[3, 4, 4, 2, 4], [4, 4, 4, 4, 6], [7, 6, 8, 7, 9]]","[[3, 3, 3, 3, 3], [3, 3, 3, 3, 3], [3, 3, 3, 3, 3]]","[[3, 3, 3, 3, 3], [3, 3, 3, 3, 3], [3, 3, 3, 3, 3]]","[2, 23, 5]",2,26,30,0,0.044,0.044,0.0,[],0,5,3,1854,0,133,133,True,0,3,traffic-light-mouselab,34,855634,0.0-3.0-31.0,5f761f4bf4c10107d66dfc96,60ca52d74ed66c9bb11e25ac,60e603c660ef9e9eae93f8c6,False,3,0,0,2,0,6,30
traffic-light-mouselab,True,3,1,"[5, 6, 7, 9, 8, 12, 11, 13, 11, 11, 13, 13, 12, 12]","[[3, 4, 3, 4, 8], [4, 6, 7, 6, 5], [6, 8, 5, 6, 9]]","[[3, 3, 3, 3, 3], [1, 1, 1, 1, 1], [3, 3, 3, 3, 3]]","[[3, 3, 3, 3, 3], [0, 0, 0, 0, 0], [3, 0, 0, 0, 3]]","[4, 16, 10]",16,12,1,1,0.064,0.059333333333333335,0.004666666666666667,"[5, 6, 7, 9, 8, 11, 13, 12]",8,5,3,50247,14,192,178,False,1,6,traffic-light-mouselab,4,189147,0.0-3.0-1.0,5da8c3e47757fd0017315b85,60ca52d74ed66c9bb11e25ac,60e60679fe0961e22c1cf5cd,True,6,0,5,16,5,7,30
traffic-light-mouselab,True,3,1,"[0, 0, 0, 1, 1, 1, 2, 2, 2, 4, 4, 4, 3, 3, 3, 14, 14, 14, 13, 13, 13, 12, 12, 12]","[[2, 3, 4, 4, 5], [5, 7, 6, 6, 4], [5, 7, 2, 5, 5]]","[[3, 3, 3, 3, 3], [3, 3, 3, 3, 3], [3, 3, 3, 3, 3]]","[[0, 0, 0, 0, 0], [3, 3, 3, 3, 3], [3, 3, 0, 0, 0]]","[18, 3, 9]",18,16,2,4,0.049,0.041,0.008,"[0, 1, 2, 4, 3, 14, 13, 12]",8,5,3,13990,24,147,123,True,0,5,traffic-light-mouselab,5,205548,0.0-3.0-2.0,5da8c3e47757fd0017315b85,60ca52d74ed66c9bb11e25ac,60e60679fe0961e22c1cf5cd,True,5,1,15,18,5,7,30
traffic-light-mouselab,False,3,1,"[0, 2, 1, 3, 4, 7, 7, 7, 9, 9, 9, 5, 5, 5]","[[5, 4, 5, 4, 5], [2, 2, 5, 5, 8], [8, 5, 5, 4, 3]]","[[1, 1, 1, 1, 1], [3, 3, 3, 3, 3], [3, 3, 3, 3, 3]]","[[0, 0, 0, 0, 0], [0, 3, 0, 3, 0], [3, 3, 3, 3, 3]]","[12, 14, 4]",12,12,3,4,0.061,0.05633333333333333,0.004666666666666667,"[0, 2, 1, 3, 4, 7, 9, 5]",8,5,3,24629,14,184,170,False,0,5,traffic-light-mouselab,7,239508,0.0-3.0-4.0,5da8c3e47757fd0017315b85,60ca52d74ed66c9bb11e25ac,60e60679fe0961e22c1cf5cd,True,5,1,5,12,5,7,30
traffic-light-mouselab,False,3,1,"[10, 10, 10, 12, 12, 12, 14, 14, 14, 11, 11, 11, 13, 13, 13, 3, 2, 1]","[[6, 7, 5, 2, 7], [5, 2, 4, 7, 5], [2, 5, 6, 6, 3]]","[[1, 1, 1, 1, 1], [3, 3, 3, 3, 3], [3, 3, 3, 3, 3]]","[[1, 0, 0, 0, 1], [3, 3, 3, 3, 3], [0, 0, 0, 0, 0]]","[6, 9, 15]",6,10,4,2,0.052,0.046,0.006,"[10, 12, 14, 11, 13, 3, 2, 1]",8,5,3,24179,18,156,138,False,0,5,traffic-light-mouselab,8,268823,0.0-3.0-5.0,5da8c3e47757fd0017315b85,60ca52d74ed66c9bb11e25ac,60e60679fe0961e22c1cf5cd,True,5,0,3,6,3,7,30
traffic-light-mouselab,False,3,1,"[0, 0, 0, 1, 1, 1, 2, 2, 2, 3, 3, 3, 4, 4, 4]","[[3, 8, 4, 10, 6], [4, 2, 6, 6, 3], [8, 6, 6, 3, 7]]","[[3, 3, 3, 3, 3], [3, 3, 3, 3, 3], [1, 1, 1, 1, 1]]","[[0, 0, 0, 0, 0], [3, 3, 3, 3, 3], [1, 1, 1, 1, 1]]","[24, 4, 2]",2,28,5,3,0.09,0.08499999999999999,0.005,"[0, 1, 2, 3, 4]",5,5,3,6026,15,270,255,False,2,3,traffic-light-mouselab,9,278352,0.0-3.0-6.0,5da8c3e47757fd0017315b85,60ca52d74ed66c9bb11e25ac,60e60679fe0961e22c1cf5cd,True,3,0,0,2,0,7,30
traffic-light-mouselab,False,3,1,[],"[[5, 4, 5, 4, 6], [3, 5, 6, 5, 6], [6, 1, 4, 3, 6]]","[[3, 3, 3, 3, 3], [3, 3, 3, 3, 3], [3, 3, 3, 3, 3]]","[[3, 3, 3, 3, 3], [3, 3, 3, 3, 3], [3, 3, 3, 3, 3]]","[6, 11, 13]",11,8,6,3,0.039,0.039,0.0,[],0,5,3,5621,0,118,118,True,1,5,traffic-light-mouselab,10,286404,0.0-3.0-7.0,5da8c3e47757fd0017315b85,60ca52d74ed66c9bb11e25ac,60e60679fe0961e22c1cf5cd,True,5,0,0,11,0,7,30
traffic-light-mouselab,False,3,1,"[6, 6, 6, 7, 7, 7, 8, 8, 8]","[[6, 7, 8, 7, 7], [3, 4, 4, 8, 6], [6, 3, 4, 4, 6]]","[[3, 3, 3, 3, 3], [3, 3, 3, 3, 3], [3, 3, 3, 3, 3]]","[[3, 3, 3, 3, 3], [3, 0, 0, 0, 3], [3, 3, 3, 3, 3]]","[13, 13, 4]",13,12,7,3,0.07,0.067,0.003,"[6, 7, 8]",3,5,3,157003,9,211,202,True,1,8,traffic-light-mouselab,11,447312,0.0-3.0-8.0,5da8c3e47757fd0017315b85,60ca52d74ed66c9bb11e25ac,60e60679fe0961e22c1cf5cd,True,8,1,9,13,3,7,30
