"","type","is_practice","click_values","payoff_matrix","cost_matrix","weights","weights_deviation","trial_num","selected_option","gross_earnings","net_earnings","click_cost","uncovered_values","experiment_type","trial_nudge","nudge_index","chose_nudge","og_baskets","shown_baskets","num_features","cost","reaction_time","naive","trial_type","trial_index","time_elapsed","nudge_type","participant_id"
"1","mouselab","True","[0, 0, 1, 1]","[[5, 6, 2, 5, 8], [5, 6, 5, 3, 7]]","[[0, 0, 2, 2, 2], [2, 2, 2, 2, 2]]","[4, 26]",22,1,2,0.046,0.0446666666666667,0.00133333333333333,"[0, 1]","supersize","control",-1,"False",5,5,2,2,18953,"True","implicit-mouselab",4,98999,"supersize",0
"2","mouselab","True","[6, 6, 14, 14, 2, 2, 21, 21, 19, 19, 16, 16]","[[4, 7, 6, 8, 4], [8, 5, 5, 3, 3], [8, 3, 8, 4, 8], [3, 8, 6, 3, 5], [5, 6, 6, 6, 2]]","[[2, 2, 0, 2, 2], [0, 2, 2, 2, 2], [2, 2, 0, 2, 0], [2, 0, 2, 0, 2], [2, 2, 2, 2, 2]]","[2, 10, 11, 4, 3]",18,2,1,0.049,0.045,0.004,"[6, 14, 2, 21, 19, 16]","supersize","control",-1,"False",5,5,5,2,24543,"True","implicit-mouselab",5,127003,"supersize",0
"3","mouselab","False","[]","[[3, 5, 5, 5, 7, 5], [5, 6, 6, 6, 2, 6]]","[[2, 2, 2, 2, 2, 2], [2, 2, 2, 2, 2, 2]]","[25, 5]",20,3,1,0.052,0.052,0,"[]","supersize","post-supersize",5,"False",5,6,2,2,17400,"True","implicit-mouselab",7,153503,"supersize",0
"4","mouselab","False","[]","[[6, 7, 7, 5, 3], [4, 6, 4, 1, 6]]","[[2, 2, 2, 2, 2], [2, 2, 2, 2, 2]]","[23, 7]",16,4,3,0.041,0.041,0,"[]","supersize","control",-1,"False",5,5,2,2,3344,"True","implicit-mouselab",8,159006,"supersize",0
"5","mouselab","False","[0, 0, 1, 1, 4, 4, 5, 5, 3, 3]","[[5, 4, 6, 2, 6, 7], [5, 3, 3, 6, 7, 7], [4, 2, 6, 6, 6, 6], [7, 3, 4, 3, 3, 7], [8, 9, 5, 5, 3, 6]]","[[0, 0, 2, 0, 0, 0], [2, 2, 2, 2, 2, 2], [2, 2, 2, 2, 2, 2], [2, 2, 2, 2, 2, 2], [2, 2, 2, 2, 2, 2]]","[10, 3, 9, 3, 5]",14,5,5,0.065,0.0616666666666667,0.00333333333333333,"[0, 1, 4, 5, 3]","supersize","pre-supersize",2,"False",5,6,5,2,18475,"True","implicit-mouselab",9,183340,"supersize",0
"6","mouselab","False","[12, 12, 13, 13, 14, 14, 15, 15, 16, 16]","[[4, 6, 6, 8, 4], [6, 5, 7, 5, 6], [5, 4, 4, 5, 6], [5, 4, 5, 3, 0], [5, 4, 3, 5, 5]]","[[2, 2, 2, 2, 2], [2, 2, 2, 2, 2], [0, 0, 0, 0, 0], [2, 2, 2, 2, 2], [2, 2, 2, 2, 2]]","[11, 1, 12, 4, 2]",22,6,4,0.044,0.0406666666666667,0.00333333333333333,"[12, 13, 14, 15, 16]","supersize","control",-1,"False",5,5,5,2,6761,"True","implicit-mouselab",10,193503,"supersize",0
"7","mouselab","False","[18, 18, 19, 19, 20, 20, 21, 21, 22, 22]","[[3, 7, 5, 5, 8], [7, 6, 4, 7, 1], [3, 4, 4, 6, 3], [5, 5, 1, 1, 6], [4, 5, 5, 9, 7]]","[[2, 2, 2, 2, 2], [2, 2, 2, 2, 2], [2, 2, 2, 2, 2], [0, 0, 0, 0, 0], [2, 2, 2, 2, 2]]","[9, 6, 1, 11, 3]",16,7,4,0.056,0.0526666666666667,0.00333333333333333,"[18, 19, 20, 21, 22]","supersize","control",-1,"False",5,5,5,2,6207,"True","implicit-mouselab",11,201052,"supersize",0
"8","mouselab","False","[0, 0, 1, 1, 2, 2, 3, 3, 4, 4, 5, 5]","[[7, 2, 4, 7, 4, 5], [4, 4, 5, 7, 8, 6]]","[[0, 0, 0, 0, 0, 0], [2, 2, 2, 2, 2, 2]]","[27, 3]",24,8,3,0.07,0.066,0.004,"[0, 1, 2, 3, 4, 5]","supersize","pre-supersize",1,"False",5,6,2,2,11281,"True","implicit-mouselab",12,213671,"supersize",0
"9","mouselab","False","[6, 6, 7, 7, 8, 8, 9, 9, 10, 10]","[[7, 7, 4, 3, 6, 5], [5, 4, 4, 6, 4, 6], [4, 6, 5, 4, 10, 5], [8, 5, 6, 8, 8, 3], [2, 3, 3, 5, 3, 2]]","[[2, 2, 2, 2, 2, 2], [0, 0, 0, 0, 0, 2], [2, 2, 2, 2, 2, 2], [2, 2, 2, 2, 2, 2], [2, 2, 2, 2, 2, 2]]","[7, 9, 7, 6, 1]",10,9,5,0.048,0.0446666666666667,0.00333333333333333,"[6, 7, 8, 9, 10]","supersize","post-supersize",5,"True",5,6,5,2,9170,"True","implicit-mouselab",13,225135,"supersize",0
"10","mouselab","False","[0, 0, 1, 1, 2, 2, 3, 3, 4, 4]","[[7, 2, 5, 5, 3], [4, 1, 4, 5, 7]]","[[0, 0, 0, 0, 0], [2, 2, 2, 2, 2]]","[27, 3]",24,10,0,0.067,0.0636666666666667,0.00333333333333333,"[0, 1, 2, 3, 4]","supersize","control",-1,"False",5,5,2,2,5362,"True","implicit-mouselab",14,236372,"supersize",0
"11","mouselab","True","[12, 12]","[[7, 3, 4, 4, 5], [5, 6, 7, 5, 6], [6, 7, 4, 6, 4], [7, 3, 9, 4, 5], [2, 7, 5, 2, 6]]","[[2, 2, 2, 2, 2], [2, 2, 2, 2, 2], [0, 2, 2, 2, 2], [2, 2, 2, 2, 2], [2, 2, 2, 2, 2]]","[9, 8, 11, 1, 1]",20,1,0,0.059,0.0583333333333333,0.000666666666666667,"[12]","supersize","control",-1,"False",5,5,5,2,7452,"False","implicit-mouselab",4,123287,"supersize",1
"12","mouselab","True","[]","[[5, 5, 8, 5, 4], [3, 7, 6, 3, 5]]","[[2, 2, 2, 2, 2], [2, 2, 2, 2, 2]]","[16, 14]",2,2,4,0.045,0.045,0,"[]","supersize","control",-1,"False",5,5,2,2,3082,"False","implicit-mouselab",5,128720,"supersize",1
"13","mouselab","False","[8, 8]","[[4, 3, 5, 5, 5], [4, 4, 5, 6, 2]]","[[2, 2, 2, 2, 2], [2, 2, 0, 2, 2]]","[4, 26]",22,3,2,0.05,0.0493333333333333,0.000666666666666667,"[8]","supersize","control",-1,"False",5,5,2,2,5125,"False","implicit-mouselab",7,137040,"supersize",1
"14","mouselab","False","[12, 12]","[[6, 8, 7, 8, 6], [4, 3, 9, 4, 6], [5, 6, 7, 7, 5], [4, 4, 5, 5, 4], [5, 4, 5, 4, 8]]","[[2, 2, 2, 2, 2], [2, 2, 2, 2, 2], [0, 2, 2, 2, 2], [2, 2, 2, 2, 2], [2, 2, 2, 2, 2]]","[2, 5, 10, 5, 8]",12,4,0,0.047,0.0463333333333333,0.000666666666666667,"[12]","supersize","control",-1,"False",5,5,5,2,3749,"False","implicit-mouselab",8,142636,"supersize",1
"15","mouselab","False","[]","[[3, 6, 4, 7, 5, 4], [5, 5, 6, 6, 4, 5], [3, 5, 5, 5, 3, 3], [4, 5, 6, 6, 5, 5], [4, 4, 7, 3, 5, 5]]","[[2, 2, 2, 2, 2, 2], [2, 2, 2, 2, 2, 2], [2, 2, 2, 2, 2, 2], [2, 2, 2, 2, 2, 2], [2, 2, 2, 2, 2, 2]]","[4, 3, 8, 2, 13]",18,5,1,0.047,0.047,0,"[]","supersize","pre-supersize",1,"True",5,6,5,2,4760,"False","implicit-mouselab",9,150124,"supersize",1
"16","mouselab","False","[9, 9]","[[6, 5, 4, 3, 5], [6, 8, 2, 5, 2], [7, 4, 7, 4, 6], [2, 5, 6, 6, 3], [5, 6, 5, 3, 6]]","[[2, 2, 2, 2, 2], [2, 2, 2, 0, 2], [2, 2, 2, 2, 2], [2, 2, 2, 2, 2], [2, 2, 2, 2, 2]]","[4, 13, 4, 2, 7]",16,6,3,0.042,0.0413333333333333,0.000666666666666667,"[9]","supersize","control",-1,"False",5,5,5,2,5378,"False","implicit-mouselab",10,157016,"supersize",1
"17","mouselab","False","[6, 6, 7, 7]","[[6, 3, 6, 4, 5, 3], [3, 7, 7, 2, 7, 3], [1, 4, 7, 4, 3, 6], [3, 4, 7, 6, 7, 6], [4, 4, 5, 3, 4, 1]]","[[2, 2, 2, 2, 2, 2], [0, 0, 2, 2, 2, 2], [2, 2, 2, 2, 2, 2], [2, 2, 2, 2, 2, 2], [2, 2, 2, 2, 2, 2]]","[9, 10, 3, 2, 6]",14,7,1,0.047,0.0456666666666667,0.00133333333333333,"[6, 7]","supersize","post-supersize",5,"False",5,6,5,2,9655,"False","implicit-mouselab",11,168366,"supersize",1
"18","mouselab","False","[2, 2, 3, 3]","[[9, 4, 3, 9, 1, 5], [5, 4, 4, 6, 6, 9]]","[[2, 2, 0, 0, 2, 2], [2, 2, 2, 2, 2, 2]]","[22, 8]",14,8,3,0.082,0.0806666666666667,0.00133333333333333,"[2, 3]","supersize","pre-supersize",1,"False",5,6,2,2,7816,"False","implicit-mouselab",12,178540,"supersize",1
"19","mouselab","False","[9, 9, 10, 10]","[[1, 7, 4, 7, 6], [7, 4, 7, 6, 6]]","[[2, 2, 2, 2, 2], [2, 2, 2, 0, 0]]","[2, 28]",26,9,3,0.061,0.0596666666666667,0.00133333333333333,"[9, 10]","supersize","control",-1,"False",5,5,2,2,5264,"False","implicit-mouselab",13,185452,"supersize",1
"20","mouselab","False","[6, 6, 7, 7, 8, 8]","[[2, 3, 7, 5, 1, 6], [4, 3, 6, 4, 7, 4]]","[[2, 2, 2, 2, 2, 2], [0, 0, 0, 2, 2, 2]]","[12, 18]",6,10,2,0.064,0.062,0.002,"[6, 7, 8]","supersize","post-supersize",5,"False",5,6,2,2,10160,"False","implicit-mouselab",14,196568,"supersize",1
"21","mouselab","True","[7, 7, 8, 8, 9, 9, 10, 10, 6, 6, 26, 26, 25, 25, 28, 28]","[[7, 4, 4, 4, 4], [4, 8, 7, 3, 7], [6, 8, 8, 3, 4], [5, 4, 5, 3, 4], [5, 5, 6, 3, 4]]","[[2, 2, 2, 2, 2], [0, 0, 0, 0, 0], [2, 2, 2, 2, 2], [2, 2, 2, 2, 2], [2, 0, 0, 2, 0]]","[1, 14, 4, 2, 9]",22,1,1,0.067,0.0616666666666667,0.00533333333333333,"[7, 8, 9, 10, 6, 26, 25, 28]","supersize","control",-1,"False",5,5,5,2,70236,"True","implicit-mouselab",4,272833,"supersize",2
"22","mouselab","True","[6, 6, 7, 7, 8, 8, 9, 9, 10, 10]","[[5, 5, 3, 8, 7], [6, 8, 6, 6, 6]]","[[2, 2, 2, 2, 2], [0, 0, 0, 0, 0]]","[1, 29]",28,2,1,0.079,0.0756666666666667,0.00333333333333333,"[6, 7, 8, 9, 10]","supersize","control",-1,"False",5,5,2,2,11117,"True","implicit-mouselab",5,288635,"supersize",2
"23","mouselab","False","[0, 0, 1, 1, 2, 2, 3, 3, 4, 4]","[[5, 5, 7, 3, 2], [4, 2, 7, 6, 5]]","[[0, 0, 0, 0, 0], [2, 2, 2, 2, 2]]","[25, 5]",20,3,2,0.07,0.0666666666666667,0.00333333333333333,"[0, 1, 2, 3, 4]","supersize","control",-1,"False",5,5,2,2,8042,"True","implicit-mouselab",7,302061,"supersize",2
"24","mouselab","False","[6, 6, 7, 7, 8, 8, 9, 9, 10, 10, 12, 12, 14, 14]","[[2, 2, 4, 4, 4], [5, 4, 5, 3, 3], [7, 3, 7, 3, 2], [5, 7, 4, 6, 3], [5, 4, 3, 5, 8]]","[[2, 2, 2, 2, 2], [0, 0, 0, 0, 0], [0, 2, 0, 2, 2], [2, 2, 2, 2, 2], [2, 2, 2, 2, 2]]","[5, 9, 7, 4, 5]",8,4,0,0.05,0.0453333333333333,0.00466666666666667,"[6, 7, 8, 9, 10, 12, 14]","supersize","control",-1,"False",5,5,5,2,25015,"True","implicit-mouselab",8,329816,"supersize",2
"25","mouselab","False","[26, 26, 25, 25, 24, 24, 27, 27, 28, 28, 29, 29]","[[7, 4, 5, 3, 5, 5], [7, 4, 8, 6, 6, 5], [4, 6, 5, 4, 4, 6], [2, 4, 2, 3, 5, 2], [5, 7, 4, 5, 4, 3]]","[[2, 2, 2, 2, 2, 2], [2, 2, 2, 2, 2, 2], [2, 2, 2, 2, 2, 2], [2, 2, 2, 2, 2, 2], [0, 0, 0, 0, 0, 0]]","[2, 4, 7, 5, 12]",14,5,1,0.057,0.053,0.004,"[26, 25, 24, 27, 28, 29]","supersize","pre-supersize",2,"False",5,6,5,2,19365,"True","implicit-mouselab",9,350798,"supersize",2
"26","mouselab","False","[0, 0, 1, 1, 2, 2, 3, 3, 4, 4]","[[6, 3, 4, 5, 10], [6, 6, 2, 6, 3], [5, 2, 8, 6, 5], [5, 4, 6, 4, 3], [4, 7, 6, 5, 8]]","[[0, 0, 0, 0, 0], [2, 2, 2, 2, 2], [2, 2, 2, 2, 2], [2, 2, 2, 2, 2], [2, 2, 2, 2, 2]]","[10, 1, 6, 6, 7]",10,6,4,0.069,0.0656666666666667,0.00333333333333333,"[0, 1, 2, 3, 4]","supersize","control",-1,"False",5,5,5,2,10420,"True","implicit-mouselab",10,362822,"supersize",2
"27","mouselab","False","[0, 0, 1, 1, 2, 2, 3, 3, 4, 4, 5, 5]","[[7, 6, 8, 6, 3, 4], [4, 4, 7, 6, 3, 6]]","[[0, 0, 0, 0, 0, 0], [2, 2, 2, 2, 2, 2]]","[26, 4]",22,7,2,0.079,0.075,0.004,"[0, 1, 2, 3, 4, 5]","supersize","post-supersize",5,"False",5,6,2,2,13627,"True","implicit-mouselab",11,377899,"supersize",2
"28","mouselab","False","[0, 0, 1, 1, 2, 2, 3, 3, 4, 4, 15, 15, 17, 17]","[[1, 4, 3, 7, 3, 8], [4, 2, 6, 3, 1, 7], [5, 5, 6, 7, 5, 4], [6, 5, 5, 6, 6, 4], [6, 5, 4, 5, 5, 6]]","[[0, 0, 0, 0, 0, 2], [2, 2, 2, 2, 2, 2], [2, 2, 2, 0, 2, 0], [2, 2, 2, 2, 2, 2], [2, 2, 2, 2, 2, 2]]","[13, 2, 12, 1, 2]",26,8,3,0.066,0.0613333333333333,0.00466666666666667,"[0, 1, 2, 3, 4, 15, 17]","supersize","post-supersize",5,"False",5,6,5,2,21444,"True","implicit-mouselab",12,400521,"supersize",2
"29","mouselab","False","[6, 6, 7, 7, 8, 8, 9, 9, 10, 10]","[[5, 7, 7, 9, 4], [4, 5, 4, 7, 9]]","[[2, 2, 2, 2, 2], [0, 0, 0, 0, 0]]","[2, 28]",26,9,4,0.087,0.0836666666666667,0.00333333333333333,"[6, 7, 8, 9, 10]","supersize","control",-1,"False",5,5,2,2,9272,"True","implicit-mouselab",13,411143,"supersize",2
"30","mouselab","False","[4, 4, 3, 3, 2, 2, 1, 1, 0, 0, 6, 6, 10, 10]","[[7, 1, 5, 5, 6, 5], [6, 8, 4, 3, 6, 2]]","[[0, 0, 0, 0, 0, 2], [0, 2, 2, 2, 0, 2]]","[24, 6]",18,10,0,0.068,0.0633333333333333,0.00466666666666667,"[4, 3, 2, 1, 0, 6, 10]","supersize","pre-supersize",5,"False",5,6,2,2,20492,"True","implicit-mouselab",14,432814,"supersize",2
"31","mouselab","True","[1, 2, 0, 6, 3, 9, 4, 10, 8, 7]","[[6, 5, 4, 7, 7], [4, 2, 6, 2, 3]]","[[1, 1, 1, 1, 1], [1, 1, 1, 1, 1]]","[23, 7]",16,1,4,0.061,0.0576666666666667,0.00333333333333333,"[]","supersize","control",-1,"False",5,5,2,2,12829,"True","implicit-mouselab",4,162967,"supersize",3
"32","mouselab","True","[]","[[5, 5, 6, 2, 6], [3, 8, 4, 5, 1], [7, 5, 6, 6, 8], [5, 5, 5, 7, 2], [6, 9, 8, 1, 4]]","[[2, 2, 2, 2, 2], [2, 2, 2, 2, 2], [2, 2, 2, 2, 2], [2, 2, 2, 2, 2], [2, 2, 2, 2, 2]]","[10, 3, 5, 5, 7]",10,2,4,0.047,0.047,0,"[]","supersize","control",-1,"False",5,5,5,2,1929,"True","implicit-mouselab",5,167229,"supersize",3
"33","mouselab","False","[]","[[6, 8, 6, 5, 8, 5], [5, 1, 6, 5, 7, 5], [3, 3, 4, 5, 4, 4], [7, 5, 6, 6, 3, 2], [8, 5, 9, 6, 4, 3]]","[[2, 2, 2, 2, 2, 2], [2, 2, 2, 2, 2, 2], [2, 2, 2, 2, 2, 2], [2, 2, 2, 2, 2, 2], [2, 2, 2, 2, 2, 2]]","[4, 17, 2, 2, 5]",22,3,4,0.062,0.062,0,"[]","supersize","pre-supersize",4,"True",5,6,5,2,1840,"True","implicit-mouselab",7,173823,"supersize",3
"34","mouselab","False","[]","[[6, 8, 6, 3, 5, 3], [4, 7, 5, 5, 4, 3], [6, 2, 5, 5, 6, 6], [6, 6, 5, 4, 7, 6], [7, 4, 1, 6, 5, 9]]","[[2, 2, 2, 2, 2, 2], [2, 2, 2, 2, 2, 2], [2, 2, 2, 2, 2, 2], [2, 2, 2, 2, 2, 2], [2, 2, 2, 2, 2, 2]]","[25, 2, 1, 1, 1]",38,4,5,0.034,0.034,0,"[]","supersize","post-supersize",5,"True",5,6,5,2,3189,"True","implicit-mouselab",8,178406,"supersize",3
"35","mouselab","False","[]","[[6, 1, 7, 6, 2], [3, 4, 3, 5, 6]]","[[2, 2, 2, 2, 2], [2, 2, 2, 2, 2]]","[29, 1]",28,5,4,0.021,0.021,0,"[]","supersize","control",-1,"False",5,5,2,2,1387,"True","implicit-mouselab",9,182877,"supersize",3
"36","mouselab","False","[]","[[5, 4, 8, 4, 3, 5], [4, 5, 5, 7, 7, 5]]","[[2, 2, 2, 2, 2, 2], [2, 2, 2, 2, 2, 2]]","[1, 29]",28,6,5,0.05,0.05,0,"[]","supersize","post-supersize",5,"True",5,6,2,2,3052,"True","implicit-mouselab",10,190037,"supersize",3
"37","mouselab","False","[]","[[7, 7, 5, 7, 4], [9, 7, 6, 7, 4]]","[[2, 2, 2, 2, 2], [2, 2, 2, 2, 2]]","[15, 15]",0,7,0,0.08,0.08,0,"[]","supersize","control",-1,"False",5,5,2,2,1308,"True","implicit-mouselab",11,194149,"supersize",3
"38","mouselab","False","[]","[[6, 2, 5, 6, 5], [3, 3, 7, 4, 4], [7, 4, 3, 4, 6], [5, 5, 3, 7, 4], [1, 5, 6, 3, 6]]","[[2, 2, 2, 2, 2], [2, 2, 2, 2, 2], [2, 2, 2, 2, 2], [2, 2, 2, 2, 2], [2, 2, 2, 2, 2]]","[19, 2, 2, 4, 3]",26,8,1,0.029,0.029,0,"[]","supersize","control",-1,"False",5,5,5,2,1115,"True","implicit-mouselab",12,197477,"supersize",3
"39","mouselab","False","[]","[[4, 6, 5, 6, 8], [3, 3, 3, 5, 6], [5, 9, 6, 3, 6], [5, 5, 7, 7, 4], [5, 5, 7, 5, 8]]","[[2, 2, 2, 2, 2], [2, 2, 2, 2, 2], [2, 2, 2, 2, 2], [2, 2, 2, 2, 2], [2, 2, 2, 2, 2]]","[7, 9, 3, 8, 3]",12,9,2,0.052,0.052,0,"[]","supersize","control",-1,"False",5,5,5,2,1660,"True","implicit-mouselab",13,201597,"supersize",3
"40","mouselab","False","[]","[[2, 6, 3, 7, 4, 3], [7, 6, 3, 6, 2, 6]]","[[2, 2, 2, 2, 2, 2], [2, 2, 2, 2, 2, 2]]","[23, 7]",16,10,4,0.035,0.035,0,"[]","supersize","pre-supersize",3,"False",5,6,2,2,1331,"True","implicit-mouselab",14,205873,"supersize",3
"41","mouselab","True","[7, 7, 21, 21, 18, 18, 0, 0, 3, 3, 26, 26, 28, 28, 10, 10, 19, 19, 8, 8, 2, 2, 27, 27, 4, 4, 12, 12, 25, 25, 1, 1, 13, 13, 6, 6, 24, 24, 14, 14, 20, 20, 9, 9, 15, 15, 16, 16, 16, 22, 22]","[[5, 5, 8, 6, 6], [6, 5, 8, 5, 5], [4, 4, 6, 5, 6], [3, 5, 3, 6, 8], [2, 10, 3, 4, 5]]","[[0, 0, 0, 0, 0], [0, 0, 0, 0, 0], [0, 0, 0, 0, 0], [0, 0, 0, 0, 0], [0, 0, 0, 0, 0]]","[4, 7, 2, 1, 16]",22,1,0,0.035,0.0183333333333333,0.0166666666666667,"[7, 21, 18, 0, 3, 26, 28, 10, 19, 8, 2, 27, 4, 12, 25, 1, 13, 6, 24, 14, 20, 9, 15, 16, 22]","supersize","control",-1,"False",5,5,5,2,48267,"False","implicit-mouselab",4,213977,"supersize",4
"42","mouselab","True","[8, 8, 0, 0, 2, 2, 4, 4, 9, 9, 1, 1]","[[9, 4, 8, 5, 6], [5, 3, 3, 6, 6]]","[[0, 0, 0, 2, 0], [2, 2, 0, 0, 2]]","[27, 3]",24,2,0,0.086,0.082,0.004,"[8, 0, 2, 4, 9, 1]","supersize","control",-1,"False",5,5,2,2,7012,"False","implicit-mouselab",5,228891,"supersize",4
"43","mouselab","False","[1, 1, 6, 6, 8, 8, 3, 3, 10, 10, 11, 11]","[[5, 3, 5, 7, 5, 7], [6, 5, 8, 7, 6, 5]]","[[2, 0, 2, 0, 2, 2], [0, 2, 0, 2, 0, 0]]","[27, 3]",24,3,5,0.068,0.064,0.004,"[1, 6, 8, 3, 10, 11]","supersize","post-supersize",5,"True",5,6,2,2,11631,"False","implicit-mouselab",7,244946,"supersize",4
"44","mouselab","False","[7, 7, 18, 18, 2, 2, 21, 21, 10, 10]","[[4, 7, 7, 8, 4, 5], [5, 6, 4, 3, 5, 5], [6, 6, 3, 6, 3, 3], [6, 4, 6, 6, 4, 4], [4, 5, 7, 6, 5, 6]]","[[2, 2, 0, 2, 2, 2], [2, 0, 2, 2, 0, 2], [2, 2, 2, 2, 2, 2], [0, 2, 2, 0, 2, 2], [2, 2, 2, 2, 2, 2]]","[8, 5, 10, 5, 2]",12,4,2,0.05,0.0466666666666667,0.00333333333333333,"[7, 18, 2, 21, 10]","supersize","post-supersize",5,"False",5,6,5,2,10377,"False","implicit-mouselab",8,258615,"supersize",4
"45","mouselab","False","[1, 1, 9, 9, 6, 6]","[[3, 4, 4, 6, 8], [7, 5, 5, 6, 5]]","[[2, 0, 2, 2, 2], [0, 2, 2, 0, 2]]","[25, 5]",20,5,0,0.037,0.035,0.002,"[1, 9, 6]","supersize","control",-1,"False",5,5,2,2,4448,"False","implicit-mouselab",9,264706,"supersize",4
"46","mouselab","False","[0, 0, 7, 7, 2, 2, 3, 9, 9, 4, 4]","[[4, 2, 5, 4, 3], [4, 7, 5, 5, 7], [8, 5, 3, 5, 4], [6, 5, 1, 3, 7], [3, 6, 5, 4, 6]]","[[0, 2, 0, 1, 0], [2, 0, 2, 0, 2], [2, 2, 2, 2, 2], [2, 2, 2, 2, 2], [2, 2, 2, 2, 2]]","[15, 8, 1, 4, 2]",22,6,1,0.041,0.0373333333333333,0.00366666666666667,"[0, 7, 2, 9, 4]","supersize","control",-1,"False",5,5,5,2,6205,"False","implicit-mouselab",10,273082,"supersize",4
"47","mouselab","False","[5, 5, 3, 3, 0, 0, 7, 7]","[[4, 6, 4, 6, 6, 5], [3, 6, 6, 3, 3, 8]]","[[0, 2, 2, 0, 2, 0], [2, 0, 2, 2, 2, 2]]","[17, 13]",4,7,1,0.06,0.0573333333333333,0.00266666666666667,"[5, 3, 0, 7]","supersize","pre-supersize",2,"False",5,6,2,2,8609,"False","implicit-mouselab",11,283414,"supersize",4
"48","mouselab","False","[1, 1, 9, 9, 4, 4, 8, 8, 0, 0]","[[6, 5, 6, 5, 5], [5, 7, 4, 5, 5]]","[[0, 0, 2, 2, 0], [2, 2, 0, 0, 2]]","[3, 27]",24,8,0,0.051,0.0476666666666667,0.00333333333333333,"[1, 9, 4, 8, 0]","supersize","control",-1,"False",5,5,2,2,5217,"False","implicit-mouselab",12,290495,"supersize",4
"49","mouselab","False","[]","[[5, 3, 3, 4, 5, 6], [5, 3, 6, 4, 9, 6], [6, 7, 6, 4, 7, 5], [3, 6, 7, 6, 8, 6], [4, 7, 2, 4, 3, 6]]","[[2, 2, 2, 2, 2, 2], [2, 2, 2, 2, 2, 2], [2, 2, 2, 2, 2, 2], [2, 2, 2, 2, 2, 2], [2, 2, 2, 2, 2, 2]]","[5, 3, 1, 9, 12]",18,9,4,0.056,0.056,0,"[]","supersize","pre-supersize",4,"True",5,6,5,2,2005,"False","implicit-mouselab",13,294834,"supersize",4
"50","mouselab","False","[6, 6, 2, 2, 21, 21, 13, 13, 4, 4]","[[8, 4, 7, 3, 5], [3, 4, 7, 5, 8], [5, 4, 6, 3, 6], [5, 5, 1, 5, 7], [2, 4, 8, 5, 7]]","[[2, 2, 0, 2, 0], [0, 2, 2, 2, 2], [2, 0, 2, 2, 2], [2, 2, 2, 0, 2], [2, 2, 2, 2, 2]]","[2, 11, 10, 1, 6]",18,10,2,0.067,0.0636666666666667,0.00333333333333333,"[6, 2, 21, 13, 4]","supersize","control",-1,"False",5,5,5,2,6192,"False","implicit-mouselab",14,303130,"supersize",4
"51","mouselab","True","[1, 9, 1, 1, 7, 7, 3, 9, 3]","[[8, 5, 7, 8, 3], [5, 3, 5, 6, 2]]","[[2, 0, 2, 0, 2], [2, 0, 2, 0, 2]]","[22, 8]",14,1,3,0.075,0.0723333333333333,0.00266666666666667,"[1, 7, 9, 3]","supersize","control",-1,"False",5,5,2,2,20014,"True","implicit-mouselab",4,94362,"supersize",5
"52","mouselab","True","[0, 0, 7, 7, 14, 14, 21, 21, 25, 25, 10, 10]","[[6, 5, 6, 7, 10], [4, 8, 4, 3, 6], [4, 5, 5, 3, 4], [5, 5, 4, 0, 8], [4, 3, 6, 5, 3]]","[[0, 2, 2, 2, 2], [2, 0, 2, 2, 0], [2, 2, 0, 2, 2], [2, 2, 2, 0, 2], [2, 0, 2, 2, 2]]","[12, 4, 2, 10, 2]",20,2,1,0.053,0.049,0.004,"[0, 7, 14, 21, 25, 10]","supersize","control",-1,"False",5,5,5,2,14129,"True","implicit-mouselab",5,111078,"supersize",5
"53","mouselab","False","[9, 9, 5, 5, 7, 7]","[[5, 5, 4, 7, 8, 5], [2, 8, 5, 4, 2, 6]]","[[2, 2, 2, 2, 2, 0], [2, 0, 2, 0, 2, 2]]","[27, 3]",24,3,1,0.053,0.051,0.002,"[9, 5, 7]","supersize","pre-supersize",0,"False",5,6,2,2,6117,"True","implicit-mouselab",7,122395,"supersize",5
"54","mouselab","False","[0, 0, 8, 8, 4, 4]","[[5, 5, 4, 5, 5], [3, 4, 6, 4, 7]]","[[0, 2, 2, 2, 0], [2, 2, 0, 2, 2]]","[10, 20]",10,4,3,0.043,0.041,0.002,"[0, 8, 4]","supersize","control",-1,"False",5,5,2,2,4920,"True","implicit-mouselab",8,128367,"supersize",5
"55","mouselab","False","[0, 7, 14, 21, 28, 0, 0, 7, 7, 14, 14, 21, 21, 28, 28]","[[5, 7, 6, 3, 6], [8, 4, 8, 4, 3], [3, 6, 5, 7, 5], [9, 3, 5, 7, 6], [5, 4, 5, 5, 6]]","[[0, 2, 2, 2, 2], [2, 0, 2, 2, 2], [2, 2, 0, 2, 2], [2, 2, 2, 0, 2], [2, 2, 2, 2, 0]]","[2, 3, 4, 17, 4]",22,5,3,0.062,0.0586666666666667,0.00333333333333333,"[0, 7, 14, 21, 28]","supersize","control",-1,"False",5,5,5,2,8983,"True","implicit-mouselab",9,139020,"supersize",5
"56","mouselab","False","[0, 8, 0, 0, 8, 4, 4]","[[7, 7, 5, 2, 5], [2, 4, 7, 4, 5]]","[[0, 2, 2, 2, 0], [2, 2, 0, 2, 2]]","[22, 8]",14,6,0,0.057,0.055,0.002,"[0, 8, 4]","supersize","control",-1,"False",5,5,2,2,7668,"True","implicit-mouselab",10,148630,"supersize",5
"57","mouselab","False","[0, 0, 0, 7, 7, 14, 14, 21, 21, 28, 28, 4, 4, 9, 9, 19, 19, 24, 24, 17, 17, 17, 29, 29]","[[5, 6, 4, 5, 7, 7], [5, 4, 3, 3, 6, 4], [6, 4, 6, 5, 7, 5], [3, 5, 5, 5, 6, 6], [6, 7, 3, 6, 3, 5]]","[[0, 2, 2, 2, 0, 2], [2, 0, 2, 0, 2, 2], [2, 2, 0, 2, 2, 0], [2, 0, 2, 0, 2, 2], [0, 2, 2, 2, 0, 0]]","[10, 7, 4, 7, 2]",12,7,4,0.063,0.0556666666666667,0.00733333333333333,"[0, 7, 14, 21, 28, 4, 9, 19, 24, 17, 29]","supersize","post-supersize",5,"False",5,6,5,2,21140,"True","implicit-mouselab",11,171251,"supersize",5
"58","mouselab","False","[0, 0, 0, 7, 7, 14, 14, 21, 21, 28, 28]","[[3, 6, 6, 5, 5], [4, 4, 6, 3, 8], [6, 4, 7, 4, 4], [3, 5, 3, 4, 2], [6, 5, 5, 3, 7]]","[[0, 2, 2, 2, 2], [2, 0, 2, 2, 2], [2, 2, 0, 2, 2], [2, 2, 2, 0, 2], [2, 2, 2, 2, 0]]","[3, 14, 6, 5, 2]",16,8,2,0.056,0.0526666666666667,0.00333333333333333,"[0, 7, 14, 21, 28]","supersize","control",-1,"False",5,5,5,2,5465,"True","implicit-mouselab",12,177673,"supersize",5
"59","mouselab","False","[10, 10, 15, 15, 20, 20, 25, 25, 18, 18]","[[4, 5, 5, 4, 6, 6], [7, 6, 5, 5, 3, 2], [5, 4, 8, 4, 8, 4], [5, 2, 8, 3, 6, 3], [2, 4, 3, 2, 3, 4]]","[[2, 2, 2, 2, 2, 2], [2, 2, 2, 2, 0, 2], [2, 2, 2, 0, 2, 2], [0, 2, 0, 2, 2, 2], [2, 0, 2, 2, 2, 2]]","[6, 9, 5, 5, 5]",6,9,2,0.057,0.0536666666666667,0.00333333333333333,"[10, 15, 20, 25, 18]","supersize","pre-supersize",5,"False",5,6,5,2,5027,"True","implicit-mouselab",13,183714,"supersize",5
"60","mouselab","False","[0, 0, 2, 2, 10, 10]","[[4, 2, 7, 8, 5, 8], [2, 8, 2, 6, 7, 9]]","[[0, 2, 0, 2, 2, 2], [2, 2, 2, 2, 0, 2]]","[14, 16]",2,10,5,0.085,0.083,0.002,"[0, 2, 10]","supersize","post-supersize",5,"True",5,6,2,2,6484,"True","implicit-mouselab",14,191537,"supersize",5
"61","mouselab","True","[8, 8, 10, 10, 6, 6, 7, 7, 9, 9, 27, 27, 24, 24, 13, 13]","[[4, 2, 5, 5, 5], [6, 5, 6, 4, 6], [4, 4, 4, 5, 3], [4, 6, 6, 5, 5], [4, 5, 6, 6, 3]]","[[2, 2, 2, 2, 2], [0, 0, 0, 0, 0], [2, 0, 2, 2, 2], [2, 2, 2, 2, 2], [0, 2, 2, 0, 2]]","[3, 14, 2, 7, 4]",18,1,1,0.049,0.0436666666666667,0.00533333333333333,"[8, 10, 6, 7, 9, 27, 24, 13]","supersize","control",-1,"False",5,5,5,2,41071,"True","implicit-mouselab",4,360589,"supersize",6
"62","mouselab","True","[8, 8, 3, 3]","[[6, 1, 6, 7, 2], [3, 5, 5, 3, 2]]","[[2, 2, 2, 0, 2], [2, 2, 0, 2, 2]]","[14, 16]",2,2,3,0.049,0.0476666666666667,0.00133333333333333,"[8, 3]","supersize","control",-1,"False",5,5,2,2,12700,"True","implicit-mouselab",5,387728,"supersize",6
"63","mouselab","False","[10, 10, 7, 7]","[[4, 7, 7, 6, 6], [5, 4, 5, 3, 7]]","[[2, 2, 2, 2, 2], [2, 0, 2, 2, 0]]","[1, 29]",28,3,4,0.07,0.0686666666666667,0.00133333333333333,"[10, 7]","supersize","control",-1,"False",5,5,2,2,14801,"True","implicit-mouselab",7,411043,"supersize",6
"64","mouselab","False","[18, 18, 21, 21, 7, 7, 1, 1]","[[2, 4, 5, 5, 4], [6, 8, 3, 9, 7], [5, 6, 3, 3, 4], [6, 7, 1, 3, 3], [6, 4, 4, 6, 5]]","[[2, 0, 2, 2, 2], [2, 0, 2, 2, 2], [2, 2, 2, 2, 2], [0, 2, 2, 0, 2], [2, 2, 2, 2, 2]]","[5, 7, 6, 9, 3]",8,4,1,0.062,0.0593333333333333,0.00266666666666667,"[18, 21, 7, 1]","supersize","control",-1,"False",5,5,5,2,22249,"True","implicit-mouselab",8,443028,"supersize",6
"65","mouselab","False","[4, 4, 16, 16, 0, 0]","[[5, 5, 7, 3, 9], [6, 3, 5, 6, 6], [3, 4, 6, 6, 4], [6, 6, 5, 7, 5], [3, 5, 8, 5, 6]]","[[0, 2, 2, 2, 0], [2, 2, 2, 2, 2], [2, 2, 2, 2, 0], [2, 2, 2, 2, 2], [2, 2, 2, 2, 2]]","[13, 5, 8, 2, 2]",18,5,4,0.067,0.065,0.002,"[4, 16, 0]","supersize","control",-1,"False",5,5,5,2,14800,"True","implicit-mouselab",9,462028,"supersize",6
"66","mouselab","False","[5, 5, 3, 3, 2, 2]","[[7, 4, 2, 4, 2, 7], [6, 5, 3, 7, 7, 5]]","[[2, 2, 0, 0, 2, 0], [2, 2, 2, 2, 2, 2]]","[22, 8]",14,6,5,0.065,0.063,0.002,"[5, 3, 2]","supersize","pre-supersize",0,"False",5,6,2,2,30391,"True","implicit-mouselab",10,494600,"supersize",6
"67","mouselab","False","[1, 1, 7, 7]","[[5, 9, 5, 5, 5, 4], [5, 8, 5, 6, 2, 4]]","[[2, 0, 2, 2, 2, 2], [2, 0, 2, 2, 2, 2]]","[23, 7]",16,7,1,0.088,0.0866666666666667,0.00133333333333333,"[1, 7]","supersize","post-supersize",5,"False",5,6,2,2,15438,"True","implicit-mouselab",11,513878,"supersize",6
"68","mouselab","False","[4, 4, 0, 0, 2, 2]","[[6, 8, 6, 3, 6], [4, 6, 3, 8, 4]]","[[0, 2, 0, 2, 0], [2, 2, 2, 2, 2]]","[13, 17]",4,8,2,0.043,0.041,0.002,"[4, 0, 2]","supersize","control",-1,"False",5,5,2,2,8316,"True","implicit-mouselab",12,524023,"supersize",6
"69","mouselab","False","[18, 18, 22, 22, 20, 20, 21, 21, 19, 19]","[[6, 4, 6, 6, 4, 5], [6, 6, 3, 6, 6, 5], [3, 3, 4, 7, 8, 3], [2, 10, 4, 6, 2, 6], [2, 4, 5, 4, 4, 9]]","[[2, 2, 2, 2, 2, 2], [2, 2, 2, 2, 2, 2], [2, 2, 2, 2, 2, 2], [0, 0, 0, 0, 0, 2], [2, 2, 2, 2, 2, 2]]","[3, 4, 3, 15, 5]",18,9,1,0.072,0.0686666666666667,0.00333333333333333,"[18, 22, 20, 21, 19]","supersize","post-supersize",5,"False",5,6,5,2,17512,"True","implicit-mouselab",13,546493,"supersize",6
"70","mouselab","False","[23, 23, 20, 20, 18, 18]","[[6, 4, 4, 5, 7, 5], [2, 8, 4, 4, 4, 8], [4, 5, 6, 4, 6, 6], [4, 3, 3, 6, 3, 3], [3, 4, 1, 5, 4, 5]]","[[2, 2, 2, 2, 2, 2], [2, 2, 2, 2, 2, 2], [2, 2, 2, 2, 2, 2], [0, 2, 0, 2, 2, 0], [2, 2, 2, 2, 2, 2]]","[1, 5, 2, 15, 7]",20,10,0,0.035,0.033,0.002,"[23, 20, 18]","supersize","pre-supersize",0,"True",5,6,5,2,15190,"True","implicit-mouselab",14,564358,"supersize",6
"71","mouselab","True","[8]","[[8, 5, 9, 5, 4], [10, 5, 4, 7, 7], [4, 5, 6, 5, 6], [6, 2, 6, 4, 4], [6, 7, 4, 3, 3]]","[[2, 2, 2, 2, 2], [2, 2, 1, 2, 2], [2, 2, 2, 2, 2], [2, 2, 2, 2, 2], [2, 2, 2, 2, 2]]","[3, 8, 6, 5, 8]",8,1,3,0.048,0.0476666666666667,0.000333333333333333,"[]","supersize","control",-1,"False",5,5,5,2,30310,"True","implicit-mouselab",4,350620,"supersize",8
"72","mouselab","True","[]","[[4, 3, 2, 5, 5], [5, 4, 1, 3, 2]]","[[2, 2, 2, 2, 2], [2, 2, 2, 2, 2]]","[14, 16]",2,2,1,0.035,0.035,0,"[]","supersize","control",-1,"False",5,5,2,2,3317,"True","implicit-mouselab",5,357031,"supersize",8
"73","mouselab","False","[]","[[5, 4, 5, 2, 6, 6], [7, 6, 6, 4, 5, 6]]","[[2, 2, 2, 2, 2, 2], [2, 2, 2, 2, 2, 2]]","[28, 2]",26,3,3,0.021,0.021,0,"[]","supersize","pre-supersize",5,"False",5,6,2,2,13133,"True","implicit-mouselab",7,376789,"supersize",8
"74","mouselab","False","[]","[[6, 3, 6, 8, 4], [4, 5, 4, 4, 8]]","[[2, 2, 2, 2, 2], [2, 2, 2, 2, 2]]","[16, 14]",2,4,1,0.039,0.039,0,"[]","supersize","control",-1,"False",5,5,2,2,3029,"True","implicit-mouselab",8,384097,"supersize",8
"75","mouselab","False","[]","[[3, 6, 5, 4, 7], [6, 6, 5, 6, 3], [8, 5, 4, 6, 4], [6, 5, 3, 5, 5], [9, 7, 9, 3, 7]]","[[2, 2, 2, 2, 2], [2, 2, 2, 2, 2], [2, 2, 2, 2, 2], [2, 2, 2, 2, 2], [2, 2, 2, 2, 2]]","[3, 3, 17, 2, 5]",22,5,3,0.052,0.052,0,"[]","supersize","control",-1,"False",5,5,5,2,3505,"True","implicit-mouselab",9,390789,"supersize",8
"76","mouselab","False","[]","[[4, 4, 6, 4, 9], [3, 5, 5, 1, 4]]","[[2, 2, 2, 2, 2], [2, 2, 2, 2, 2]]","[20, 10]",10,6,4,0.073,0.073,0,"[]","supersize","control",-1,"False",5,5,2,2,1839,"True","implicit-mouselab",10,394475,"supersize",8
"77","mouselab","False","[]","[[4, 4, 5, 6, 1], [4, 4, 4, 7, 2], [5, 7, 6, 7, 4], [7, 4, 7, 5, 4], [5, 2, 7, 7, 5]]","[[2, 2, 2, 2, 2], [2, 2, 2, 2, 2], [2, 2, 2, 2, 2], [2, 2, 2, 2, 2], [2, 2, 2, 2, 2]]","[14, 2, 5, 5, 4]",16,7,0,0.048,0.048,0,"[]","supersize","control",-1,"False",5,5,5,2,1277,"True","implicit-mouselab",11,403209,"supersize",8
"78","mouselab","False","[]","[[5, 6, 7, 6, 3, 7], [4, 4, 7, 1, 4, 3], [2, 6, 5, 4, 3, 5], [7, 5, 4, 6, 5, 7], [5, 5, 4, 6, 7, 5]]","[[2, 2, 2, 2, 2, 2], [2, 2, 2, 2, 2, 2], [2, 2, 2, 2, 2, 2], [2, 2, 2, 2, 2, 2], [2, 2, 2, 2, 2, 2]]","[1, 7, 12, 6, 4]",14,8,5,0.05,0.05,0,"[]","supersize","post-supersize",5,"True",5,6,5,2,22633,"True","implicit-mouselab",12,428094,"supersize",8
"79","mouselab","False","[]","[[0, 8, 5, 4, 7, 4], [3, 8, 9, 2, 4, 3]]","[[2, 2, 2, 2, 2, 2], [2, 2, 2, 2, 2, 2]]","[19, 11]",8,9,5,0.036,0.036,0,"[]","supersize","post-supersize",5,"True",5,6,2,2,17475,"True","implicit-mouselab",13,447322,"supersize",8
"80","mouselab","False","[]","[[4, 2, 2, 5, 8, 9], [4, 6, 5, 4, 5, 5], [6, 3, 6, 5, 6, 6], [2, 4, 5, 3, 6, 8], [5, 5, 3, 5, 5, 6]]","[[2, 2, 2, 2, 2, 2], [2, 2, 2, 2, 2, 2], [2, 2, 2, 2, 2, 2], [2, 2, 2, 2, 2, 2], [2, 2, 2, 2, 2, 2]]","[2, 5, 10, 10, 3]",16,10,2,0.049,0.049,0,"[]","supersize","pre-supersize",2,"True",5,6,5,2,2243,"True","implicit-mouselab",14,451528,"supersize",8
"81","mouselab","True","[7, 8, 9, 10, 6, 0, 1, 2, 3, 4]","[[7, 8, 6, 7, 6], [2, 6, 5, 7, 3]]","[[1, 1, 1, 1, 1], [1, 1, 1, 1, 1]]","[5, 25]",20,1,4,0.035,0.0316666666666667,0.00333333333333333,"[]","supersize","control",-1,"False",5,5,2,2,25671,"False","implicit-mouselab",4,96953,"supersize",9
"82","mouselab","True","[12, 14, 16]","[[7, 7, 6, 7, 7], [5, 4, 4, 8, 3], [6, 7, 7, 3, 9], [6, 8, 4, 5, 6], [5, 6, 7, 2, 5]]","[[2, 2, 2, 2, 2], [2, 2, 2, 2, 2], [1, 2, 1, 2, 1], [2, 2, 2, 2, 2], [2, 2, 2, 2, 2]]","[6, 7, 10, 2, 5]",10,2,4,0.063,0.062,0.001,"[]","supersize","control",-1,"False",5,5,5,2,17131,"False","implicit-mouselab",5,124930,"supersize",9
"83","mouselab","False","[20, 18, 21]","[[4, 5, 4, 4, 6, 5], [6, 7, 4, 7, 6, 4], [6, 5, 8, 3, 2, 3], [4, 2, 4, 7, 4, 5], [5, 4, 4, 6, 6, 6]]","[[2, 2, 2, 2, 2, 2], [2, 2, 2, 2, 2, 2], [2, 2, 2, 2, 2, 2], [1, 2, 1, 1, 2, 2], [2, 2, 2, 2, 2, 2]]","[4, 3, 6, 11, 6]",10,3,2,0.048,0.047,0.001,"[]","supersize","post-supersize",5,"False",5,6,5,2,25028,"False","implicit-mouselab",7,155427,"supersize",9
"84","mouselab","False","[22]","[[7, 5, 2, 5, 8], [4, 3, 7, 3, 7], [6, 4, 2, 2, 6], [5, 5, 6, 6, 7], [2, 2, 8, 3, 6]]","[[2, 2, 2, 2, 2], [2, 2, 2, 2, 2], [2, 2, 2, 2, 2], [2, 2, 2, 2, 1], [2, 2, 2, 2, 2]]","[3, 4, 6, 10, 7]",10,4,1,0.038,0.0376666666666667,0.000333333333333333,"[]","supersize","control",-1,"False",5,5,5,2,8920,"False","implicit-mouselab",8,169510,"supersize",9
"85","mouselab","False","[]","[[6, 6, 9, 7, 7, 6], [7, 3, 4, 8, 4, 5], [6, 4, 10, 4, 6, 5], [6, 4, 1, 7, 7, 6], [5, 10, 3, 1, 4, 4]]","[[2, 2, 2, 2, 2, 2], [2, 2, 2, 2, 2, 2], [2, 2, 2, 2, 2, 2], [2, 2, 2, 2, 2, 2], [2, 2, 2, 2, 2, 2]]","[5, 7, 5, 2, 11]",12,5,2,0.053,0.053,0,"[]","supersize","pre-supersize",5,"False",5,6,5,2,5151,"False","implicit-mouselab",9,181840,"supersize",9
"86","mouselab","False","[6]","[[4, 4, 4, 4, 5], [9, 5, 5, 5, 7]]","[[2, 2, 2, 2, 2], [1, 2, 2, 2, 2]]","[13, 17]",4,6,3,0.046,0.0456666666666667,0.000333333333333333,"[]","supersize","control",-1,"False",5,5,2,2,10854,"False","implicit-mouselab",10,194686,"supersize",9
"87","mouselab","False","[]","[[4, 4, 4, 8, 1], [4, 4, 4, 4, 6], [5, 5, 3, 5, 1], [5, 2, 4, 5, 7], [7, 5, 2, 4, 2]]","[[2, 2, 2, 2, 2], [2, 2, 2, 2, 2], [2, 2, 2, 2, 2], [2, 2, 2, 2, 2], [2, 2, 2, 2, 2]]","[4, 3, 2, 12, 9]",18,7,1,0.036,0.036,0,"[]","supersize","control",-1,"False",5,5,5,2,1574,"False","implicit-mouselab",11,199534,"supersize",9
"88","mouselab","False","[]","[[6, 3, 7, 4, 2], [8, 8, 1, 5, 6]]","[[2, 2, 2, 2, 2], [2, 2, 2, 2, 2]]","[27, 3]",24,8,3,0.041,0.041,0,"[]","supersize","control",-1,"False",5,5,2,2,2902,"False","implicit-mouselab",12,204709,"supersize",9
"89","mouselab","False","[0, 3]","[[2, 5, 7, 6, 4, 5], [8, 10, 7, 2, 5, 3]]","[[1, 2, 2, 1, 2, 2], [2, 2, 2, 2, 2, 2]]","[18, 12]",6,9,5,0.042,0.0413333333333333,0.000666666666666667,"[]","supersize","post-supersize",5,"True",5,6,2,2,6783,"False","implicit-mouselab",13,213101,"supersize",9
"90","mouselab","False","[]","[[5, 8, 6, 9, 4, 6], [7, 4, 7, 8, 4, 4]]","[[2, 2, 2, 2, 2, 2], [2, 2, 2, 2, 2, 2]]","[1, 29]",28,10,2,0.07,0.07,0,"[]","supersize","pre-supersize",2,"True",5,6,2,2,3261,"False","implicit-mouselab",14,218456,"supersize",9
"91","mouselab","True","[7, 7]","[[6, 6, 5, 5, 2], [6, 7, 7, 5, 8]]","[[2, 2, 2, 2, 2], [2, 0, 2, 2, 2]]","[8, 22]",14,1,1,0.067,0.0663333333333333,0.000666666666666667,"[7]","supersize","control",-1,"False",5,5,2,2,10804,"False","implicit-mouselab",4,228964,"supersize",10
"92","mouselab","True","[1, 1, 2, 2, 3, 3]","[[7, 5, 4, 6, 6], [3, 2, 3, 7, 4], [7, 6, 3, 4, 8], [5, 7, 6, 6, 8], [6, 6, 4, 5, 3]]","[[2, 0, 0, 0, 2], [2, 2, 2, 2, 2], [2, 2, 2, 2, 2], [2, 2, 2, 2, 2], [2, 2, 2, 2, 2]]","[8, 8, 6, 3, 5]",8,2,3,0.057,0.055,0.002,"[1, 2, 3]","supersize","control",-1,"False",5,5,5,2,13228,"False","implicit-mouselab",5,245033,"supersize",10
"93","mouselab","False","[6, 6, 8, 8]","[[7, 2, 0, 4, 5], [3, 6, 6, 3, 5], [6, 5, 5, 4, 5], [10, 4, 5, 3, 3], [5, 6, 5, 7, 2]]","[[2, 2, 2, 2, 2], [0, 2, 0, 2, 2], [2, 2, 2, 2, 2], [2, 2, 2, 2, 2], [2, 2, 2, 2, 2]]","[4, 9, 5, 7, 5]",8,3,2,0.046,0.0446666666666667,0.00133333333333333,"[6, 8]","supersize","control",-1,"False",5,5,5,2,9499,"False","implicit-mouselab",7,261205,"supersize",10
"94","mouselab","False","[7, 7, 9, 9, 8, 8, 6, 6, 10, 10]","[[9, 6, 4, 7, 5], [5, 5, 4, 4, 5]]","[[2, 2, 2, 2, 2], [0, 0, 0, 0, 0]]","[11, 19]",8,4,0,0.065,0.0616666666666667,0.00333333333333333,"[7, 9, 8, 6, 10]","supersize","control",-1,"False",5,5,2,2,9593,"False","implicit-mouselab",8,273857,"supersize",10
"95","mouselab","False","[6, 6, 8, 8, 9, 9]","[[5, 3, 4, 2, 3], [3, 5, 6, 5, 6], [4, 7, 4, 7, 5], [2, 3, 7, 5, 6], [8, 2, 1, 6, 6]]","[[2, 2, 2, 2, 2], [0, 2, 0, 0, 2], [2, 2, 2, 2, 2], [2, 2, 2, 2, 2], [2, 2, 2, 2, 2]]","[3, 10, 8, 7, 2]",14,5,2,0.052,0.05,0.002,"[6, 8, 9]","supersize","control",-1,"False",5,5,5,2,5696,"False","implicit-mouselab",9,281009,"supersize",10
"96","mouselab","False","[]","[[4, 8, 6, 4, 7, 8], [4, 5, 3, 2, 4, 7]]","[[2, 2, 2, 2, 2, 2], [2, 2, 2, 2, 2, 2]]","[23, 7]",16,6,1,0.073,0.073,0,"[]","supersize","pre-supersize",1,"True",5,6,2,2,4818,"False","implicit-mouselab",10,288951,"supersize",10
"97","mouselab","False","[2, 2, 3, 3, 0, 0, 1, 1, 4, 4]","[[3, 3, 6, 3, 3, 5], [4, 5, 4, 2, 7, 4]]","[[0, 0, 0, 0, 0, 2], [2, 2, 2, 2, 2, 2]]","[22, 8]",14,7,2,0.055,0.0516666666666667,0.00333333333333333,"[2, 3, 0, 1, 4]","supersize","post-supersize",5,"False",5,6,2,2,25123,"False","implicit-mouselab",11,316617,"supersize",10
"98","mouselab","False","[1, 1, 3, 3, 2, 2, 0, 0]","[[7, 3, 5, 5, 3, 4], [7, 5, 6, 5, 6, 5], [5, 6, 5, 4, 8, 6], [5, 4, 5, 3, 7, 7], [5, 3, 4, 4, 6, 6]]","[[0, 0, 0, 0, 2, 2], [2, 2, 2, 2, 2, 2], [2, 2, 2, 2, 2, 2], [2, 2, 2, 2, 2, 2], [2, 2, 2, 2, 2, 2]]","[15, 5, 3, 1, 6]",18,8,0,0.063,0.0603333333333333,0.00266666666666667,"[1, 3, 2, 0]","supersize","post-supersize",5,"False",5,6,5,2,13018,"False","implicit-mouselab",12,332436,"supersize",10
"99","mouselab","False","[26, 26, 25, 25, 24, 24, 27, 27, 29, 29, 19, 19]","[[7, 6, 8, 5, 7, 1], [4, 8, 3, 1, 0, 3], [5, 6, 5, 2, 5, 6], [4, 7, 4, 4, 7, 8], [4, 5, 3, 4, 4, 5]]","[[2, 2, 2, 2, 2, 2], [2, 2, 2, 2, 2, 2], [2, 2, 2, 2, 2, 2], [2, 0, 2, 2, 2, 2], [0, 0, 0, 0, 2, 0]]","[3, 3, 4, 5, 15]",18,9,1,0.059,0.055,0.004,"[26, 25, 24, 27, 29, 19]","supersize","pre-supersize",4,"False",5,6,5,2,13239,"False","implicit-mouselab",13,349471,"supersize",10
"100","mouselab","False","[6, 6]","[[2, 4, 8, 5, 5], [9, 4, 6, 4, 2]]","[[2, 2, 2, 2, 2], [0, 2, 2, 2, 2]]","[12, 18]",6,10,0,0.062,0.0613333333333333,0.000666666666666667,"[6]","supersize","control",-1,"False",5,5,2,2,3935,"False","implicit-mouselab",14,355777,"supersize",10
"101","mouselab","True","[18, 18, 20, 20, 19, 19, 21, 21, 22, 22]","[[1, 0, 7, 4, 5], [9, 4, 7, 5, 5], [2, 3, 5, 8, 5], [5, 5, 3, 6, 7], [1, 8, 4, 4, 5]]","[[2, 2, 2, 2, 2], [2, 2, 2, 2, 2], [2, 2, 2, 2, 2], [0, 0, 0, 0, 0], [2, 2, 2, 2, 2]]","[4, 5, 2, 13, 6]",14,1,3,0.053,0.0496666666666667,0.00333333333333333,"[18, 20, 19, 21, 22]","supersize","control",-1,"False",5,5,5,2,29281,"False","implicit-mouselab",4,223404,"supersize",11
"102","mouselab","True","[6, 6, 8, 8, 7, 7, 9, 9, 10, 10]","[[6, 3, 5, 4, 7], [4, 6, 6, 4, 4]]","[[2, 2, 2, 2, 2], [0, 0, 0, 0, 0]]","[1, 29]",28,2,2,0.06,0.0566666666666667,0.00333333333333333,"[6, 8, 7, 9, 10]","supersize","control",-1,"False",5,5,2,2,13261,"False","implicit-mouselab",5,239018,"supersize",11
"103","mouselab","False","[0, 1, 0, 1, 3, 3, 2, 2, 4, 4]","[[6, 4, 4, 5, 7], [4, 4, 3, 5, 4]]","[[0, 0, 0, 0, 0], [2, 2, 2, 2, 2]]","[23, 7]",16,3,4,0.063,0.0596666666666667,0.00333333333333333,"[0, 1, 3, 2, 4]","supersize","control",-1,"False",5,5,2,2,14118,"False","implicit-mouselab",7,258119,"supersize",11
"104","mouselab","False","[6, 6, 7, 7, 11, 11]","[[2, 5, 4, 5, 7, 4], [9, 5, 1, 2, 5, 2]]","[[2, 2, 2, 2, 2, 2], [0, 0, 2, 2, 2, 0]]","[4, 26]",22,4,0,0.081,0.079,0.002,"[6, 7, 11]","supersize","post-supersize",5,"False",5,6,2,2,15796,"False","implicit-mouselab",8,279485,"supersize",11
"105","mouselab","False","[13, 12, 13, 14, 14]","[[5, 6, 2, 6, 6, 4], [4, 3, 5, 5, 3, 4], [7, 4, 4, 6, 5, 4], [5, 4, 4, 4, 8, 2], [6, 5, 1, 3, 8, 3]]","[[2, 2, 2, 2, 2, 2], [2, 2, 2, 2, 2, 2], [2, 0, 0, 2, 2, 2], [2, 2, 2, 2, 2, 2], [2, 2, 2, 2, 2, 2]]","[5, 6, 8, 6, 5]",4,5,0,0.055,0.0536666666666667,0.00133333333333333,"[13, 14]","supersize","pre-supersize",0,"True",5,6,5,2,16098,"False","implicit-mouselab",9,298035,"supersize",11
"106","mouselab","False","[1, 1, 0, 0, 2, 2]","[[7, 2, 4, 3, 7], [7, 8, 7, 1, 7], [7, 5, 6, 8, 4], [8, 7, 10, 6, 4], [6, 8, 6, 5, 8]]","[[0, 0, 0, 2, 2], [2, 2, 2, 2, 2], [2, 2, 2, 2, 2], [2, 2, 2, 2, 2], [2, 2, 2, 2, 2]]","[11, 2, 4, 10, 3]",18,6,0,0.072,0.07,0.002,"[1, 0, 2]","supersize","control",-1,"False",5,5,5,2,9865,"False","implicit-mouselab",10,310168,"supersize",11
"107","mouselab","False","[24, 24, 26, 26, 25, 25, 27, 27, 28, 28, 16, 16, 13, 13, 19, 19, 22, 22]","[[3, 1, 6, 7, 5], [5, 4, 4, 6, 5], [3, 6, 6, 6, 6], [4, 6, 6, 2, 5], [5, 6, 2, 3, 6]]","[[2, 2, 2, 2, 2], [2, 2, 2, 2, 2], [2, 0, 2, 2, 0], [2, 0, 2, 2, 0], [0, 0, 0, 0, 0]]","[1, 2, 9, 8, 10]",18,7,1,0.057,0.051,0.006,"[24, 26, 25, 27, 28, 16, 13, 19, 22]","supersize","control",-1,"False",5,5,5,2,25216,"False","implicit-mouselab",11,337571,"supersize",11
"108","mouselab","False","[12, 12, 13, 13, 14, 14, 15, 15, 16, 16, 18, 18]","[[4, 5, 7, 7, 2, 7], [6, 5, 6, 4, 7, 1], [4, 3, 3, 3, 3, 7], [6, 6, 6, 3, 4, 4], [1, 4, 5, 7, 7, 4]]","[[2, 2, 2, 2, 2, 2], [2, 2, 2, 2, 2, 2], [0, 0, 0, 0, 0, 2], [0, 2, 2, 2, 2, 2], [2, 2, 2, 2, 2, 2]]","[4, 4, 11, 8, 3]",14,8,0,0.045,0.041,0.004,"[12, 13, 14, 15, 16, 18]","supersize","post-supersize",5,"False",5,6,5,2,22562,"False","implicit-mouselab",12,362621,"supersize",11
"109","mouselab","False","[7, 7]","[[3, 0, 4, 8, 3], [5, 7, 5, 5, 5]]","[[2, 2, 2, 2, 2], [2, 0, 2, 2, 2]]","[3, 27]",24,9,1,0.063,0.0623333333333333,0.000666666666666667,"[7]","supersize","control",-1,"False",5,5,2,2,4663,"False","implicit-mouselab",13,369122,"supersize",11
"110","mouselab","False","[10, 10]","[[3, 6, 6, 5, 7, 4], [3, 6, 4, 5, 7, 8]]","[[2, 2, 2, 2, 2, 2], [2, 2, 2, 2, 0, 2]]","[22, 8]",14,10,4,0.07,0.0693333333333333,0.000666666666666667,"[10]","supersize","pre-supersize",4,"True",5,6,2,2,9496,"False","implicit-mouselab",14,380588,"supersize",11
"111","mouselab","True","[25, 25, 27, 27, 2, 2, 0, 0, 26, 26, 7, 7, 9, 9, 14, 14, 19, 19]","[[3, 4, 7, 8, 7], [2, 6, 4, 3, 5], [4, 5, 3, 3, 8], [6, 8, 7, 4, 4], [4, 4, 5, 5, 6]]","[[0, 2, 0, 2, 2], [2, 0, 2, 0, 2], [2, 2, 0, 2, 2], [2, 0, 2, 2, 2], [2, 0, 0, 0, 2]]","[9, 7, 2, 1, 11]",18,1,2,0.053,0.047,0.006,"[25, 27, 2, 0, 26, 7, 9, 14, 19]","supersize","control",-1,"False",5,5,5,2,42499,"True","implicit-mouselab",4,183939,"supersize",12
"112","mouselab","True","[1, 1, 8, 8, 3, 3, 9, 9]","[[4, 3, 4, 6, 6], [5, 4, 2, 2, 5]]","[[2, 0, 2, 0, 2], [2, 2, 0, 0, 2]]","[18, 12]",6,2,3,0.044,0.0413333333333333,0.00266666666666667,"[1, 8, 3, 9]","supersize","control",-1,"False",5,5,2,2,9907,"True","implicit-mouselab",5,195795,"supersize",12
"113","mouselab","False","[8, 8, 6, 6, 9, 9]","[[5, 5, 2, 5, 3], [5, 1, 5, 8, 4]]","[[2, 2, 2, 2, 2], [0, 2, 0, 0, 2]]","[2, 28]",26,3,3,0.078,0.076,0.002,"[8, 6, 9]","supersize","control",-1,"False",5,5,2,2,10990,"True","implicit-mouselab",7,228597,"supersize",12
"114","mouselab","False","[8, 8, 10, 10, 2, 2, 6, 6, 0, 0, 11, 11]","[[3, 7, 3, 6, 7, 8], [5, 3, 8, 4, 4, 6]]","[[0, 2, 0, 2, 2, 2], [0, 2, 0, 2, 0, 0]]","[10, 20]",10,4,5,0.067,0.063,0.004,"[8, 10, 2, 6, 0, 11]","supersize","post-supersize",5,"True",5,6,2,2,18961,"True","implicit-mouselab",8,248961,"supersize",12
"115","mouselab","False","[13, 13, 15, 15, 3, 3, 16, 16, 21, 21]","[[5, 1, 4, 4, 4], [4, 4, 7, 4, 5], [6, 4, 6, 6, 3], [3, 8, 4, 5, 6], [3, 7, 3, 3, 7]]","[[2, 2, 2, 0, 2], [2, 2, 2, 2, 2], [2, 0, 2, 0, 0], [2, 2, 2, 0, 2], [2, 2, 2, 2, 2]]","[8, 3, 10, 6, 3]",12,5,3,0.048,0.0446666666666667,0.00333333333333333,"[13, 15, 3, 16, 21]","supersize","control",-1,"False",5,5,5,2,44268,"True","implicit-mouselab",9,295905,"supersize",12
"116","mouselab","False","[8, 8, 6, 6, 12, 12]","[[7, 5, 6, 2, 3], [6, 2, 3, 7, 2], [6, 3, 6, 8, 2], [7, 4, 2, 5, 4], [6, 6, 8, 5, 7]]","[[2, 2, 2, 2, 2], [0, 2, 0, 2, 2], [0, 2, 2, 2, 2], [2, 2, 2, 2, 2], [2, 2, 2, 2, 2]]","[8, 10, 8, 2, 2]",16,6,0,0.063,0.061,0.002,"[8, 6, 12]","supersize","control",-1,"False",5,5,5,2,8675,"True","implicit-mouselab",10,308388,"supersize",12
"117","mouselab","False","[2, 2, 1, 1, 4, 4, 9, 9, 6, 6]","[[5, 7, 10, 6, 5], [4, 8, 6, 4, 6]]","[[2, 0, 0, 2, 0], [0, 2, 2, 0, 2]]","[18, 12]",6,7,2,0.084,0.0806666666666667,0.00333333333333333,"[2, 1, 4, 9, 6]","supersize","control",-1,"False",5,5,2,2,9307,"True","implicit-mouselab",11,320605,"supersize",12
"118","mouselab","False","[8, 8, 10, 10, 11, 11, 7, 7, 3, 3, 1, 1]","[[6, 6, 1, 4, 5, 8], [8, 6, 2, 4, 2, 4]]","[[2, 0, 2, 0, 2, 2], [2, 0, 0, 2, 0, 0]]","[3, 27]",24,8,0,0.078,0.074,0.004,"[8, 10, 11, 7, 3, 1]","supersize","pre-supersize",0,"True",5,6,2,2,10735,"True","implicit-mouselab",12,332567,"supersize",12
"119","mouselab","False","[8, 8, 7, 7, 19, 19]","[[2, 8, 6, 9, 8, 6], [5, 8, 5, 6, 4, 4], [4, 2, 6, 5, 6, 7], [7, 6, 9, 3, 7, 7], [4, 7, 6, 5, 4, 6]]","[[2, 2, 2, 2, 2, 2], [2, 0, 0, 2, 2, 2], [2, 2, 2, 2, 2, 2], [2, 0, 2, 2, 2, 2], [2, 2, 2, 2, 2, 2]]","[2, 14, 3, 8, 3]",20,9,1,0.068,0.066,0.002,"[8, 7, 19]","supersize","pre-supersize",3,"False",5,6,5,2,10038,"True","implicit-mouselab",13,344367,"supersize",12
"120","mouselab","False","[7, 7, 8, 8, 10, 10, 6, 6, 19, 19, 23, 23]","[[7, 4, 5, 7, 6, 4], [4, 6, 4, 7, 4, 7], [8, 7, 5, 6, 6, 6], [5, 4, 7, 5, 7, 3], [4, 2, 9, 4, 9, 2]]","[[2, 2, 2, 2, 2, 2], [0, 0, 0, 2, 0, 2], [2, 2, 2, 2, 2, 2], [2, 0, 2, 2, 2, 0], [2, 2, 2, 2, 2, 2]]","[1, 15, 2, 10, 2]",26,10,5,0.052,0.048,0.004,"[7, 8, 10, 6, 19, 23]","supersize","post-supersize",5,"True",5,6,5,2,11550,"True","implicit-mouselab",14,357278,"supersize",12
"121","mouselab","True","[13, 13, 21, 21, 24, 24, 18, 18, 6, 6, 4, 4, 10, 10, 16, 16, 22, 22, 28, 28, 27, 27, 26, 26, 25, 25, 20, 20, 19, 19, 15, 15, 14, 14, 12, 12, 7, 7, 8, 8, 9, 9, 3, 3, 2, 2, 1, 1, 0, 0, 22, 28, 28, 28, 28, 28, 28]","[[6, 1, 2, 5, 4], [8, 4, 3, 3, 6], [5, 3, 4, 2, 3], [4, 6, 6, 3, 2], [7, 6, 6, 5, 5]]","[[0, 0, 0, 0, 0], [0, 0, 0, 0, 0], [0, 0, 0, 0, 0], [0, 0, 0, 0, 0], [0, 0, 0, 0, 0]]","[2, 6, 11, 10, 1]",18,1,0,0.054,0.0373333333333333,0.0166666666666667,"[13, 21, 24, 18, 6, 4, 10, 16, 22, 28, 27, 26, 25, 20, 19, 15, 14, 12, 7, 8, 9, 3, 2, 1, 0]","supersize","control",-1,"False",5,5,5,2,48013,"False","implicit-mouselab",4,254303,"supersize",13
"122","mouselab","True","[0, 0]","[[7, 5, 4, 4, 3], [4, 3, 4, 6, 4]]","[[0, 2, 2, 2, 2], [2, 2, 2, 2, 2]]","[26, 4]",22,2,0,0.066,0.0653333333333333,0.000666666666666667,"[0]","supersize","control",-1,"False",5,5,2,2,5078,"False","implicit-mouselab",5,265190,"supersize",13
"123","mouselab","False","[]","[[6, 6, 5, 4, 8, 6], [4, 4, 8, 3, 6, 6]]","[[2, 2, 2, 2, 2, 2], [2, 2, 2, 2, 2, 2]]","[24, 6]",18,3,1,0.056,0.056,0,"[]","supersize","pre-supersize",1,"True",5,6,2,2,5078,"False","implicit-mouselab",7,276150,"supersize",13
"124","mouselab","False","[9, 9, 1, 1]","[[5, 6, 5, 4, 4], [3, 5, 4, 4, 1]]","[[2, 0, 2, 2, 2], [2, 2, 2, 0, 2]]","[29, 1]",28,4,1,0.06,0.0586666666666667,0.00133333333333333,"[9, 1]","supersize","control",-1,"False",5,5,2,2,14751,"False","implicit-mouselab",8,293942,"supersize",13
"125","mouselab","False","[21, 21]","[[5, 2, 5, 10, 5], [7, 4, 7, 5, 6], [5, 7, 7, 6, 6], [10, 4, 8, 8, 6], [5, 3, 2, 6, 5]]","[[2, 2, 2, 2, 2], [2, 2, 2, 2, 2], [2, 2, 2, 2, 2], [2, 2, 2, 0, 2], [2, 2, 2, 2, 2]]","[1, 5, 3, 11, 10]",18,5,3,0.067,0.0663333333333333,0.000666666666666667,"[21]","supersize","control",-1,"False",5,5,5,2,2447,"False","implicit-mouselab",9,299574,"supersize",13
"126","mouselab","False","[18, 18]","[[4, 3, 3, 6, 3], [6, 7, 3, 7, 4], [3, 7, 3, 2, 4], [7, 5, 7, 8, 4], [7, 5, 3, 4, 5]]","[[2, 2, 2, 2, 2], [2, 2, 2, 2, 2], [2, 2, 2, 2, 2], [0, 2, 2, 2, 2], [2, 2, 2, 2, 2]]","[4, 9, 8, 5, 4]",10,6,0,0.052,0.0513333333333333,0.000666666666666667,"[18]","supersize","control",-1,"False",5,5,5,2,3383,"False","implicit-mouselab",10,307998,"supersize",13
"127","mouselab","False","[10, 10]","[[6, 9, 4, 3, 6], [0, 4, 3, 6, 7]]","[[2, 2, 2, 2, 2], [2, 2, 2, 2, 0]]","[5, 25]",20,7,4,0.068,0.0673333333333333,0.000666666666666667,"[10]","supersize","control",-1,"False",5,5,2,2,3055,"False","implicit-mouselab",11,314614,"supersize",13
"128","mouselab","False","[13, 13, 9, 9]","[[3, 5, 2, 3, 5, 5], [4, 4, 5, 7, 6, 4], [5, 1, 9, 5, 6, 6], [3, 6, 6, 5, 6, 6], [3, 6, 5, 4, 6, 5]]","[[2, 2, 2, 2, 2, 2], [2, 2, 2, 0, 2, 2], [2, 0, 2, 2, 2, 2], [2, 2, 2, 2, 2, 2], [2, 2, 2, 2, 2, 2]]","[3, 5, 6, 3, 13]",14,8,3,0.047,0.0456666666666667,0.00133333333333333,"[13, 9]","supersize","post-supersize",5,"False",5,6,5,2,4335,"False","implicit-mouselab",12,322222,"supersize",13
"129","mouselab","False","[]","[[4, 7, 2, 6, 6, 5], [8, 4, 8, 3, 7, 5], [7, 4, 5, 5, 4, 5], [6, 7, 5, 4, 4, 9], [5, 5, 6, 5, 5, 6]]","[[2, 2, 2, 2, 2, 2], [2, 2, 2, 2, 2, 2], [2, 2, 2, 2, 2, 2], [2, 2, 2, 2, 2, 2], [2, 2, 2, 2, 2, 2]]","[5, 14, 4, 4, 3]",16,9,5,0.056,0.056,0,"[]","supersize","pre-supersize",5,"True",5,6,5,2,2350,"False","implicit-mouselab",13,326357,"supersize",13
"130","mouselab","False","[7, 7]","[[5, 5, 3, 5, 8, 3], [6, 8, 3, 3, 5, 4]]","[[2, 2, 2, 2, 2, 2], [2, 0, 2, 2, 2, 2]]","[25, 5]",20,10,1,0.055,0.0543333333333333,0.000666666666666667,"[7]","supersize","post-supersize",5,"False",5,6,2,2,2551,"False","implicit-mouselab",14,331070,"supersize",13
"131","mouselab","True","[25, 25, 14, 14, 15, 15, 28, 28, 26, 26]","[[5, 8, 5, 7, 5], [6, 5, 5, 7, 4], [5, 4, 5, 6, 6], [8, 2, 3, 1, 6], [8, 6, 4, 8, 6]]","[[2, 2, 2, 2, 2], [2, 2, 2, 2, 2], [2, 2, 0, 0, 2], [2, 2, 2, 2, 2], [2, 0, 0, 2, 0]]","[3, 4, 6, 1, 16]",20,1,2,0.044,0.0406666666666667,0.00333333333333333,"[25, 14, 15, 28, 26]","supersize","control",-1,"False",5,5,5,2,71054,"True","implicit-mouselab",4,431269,"supersize",14
"132","mouselab","True","[1, 1, 9, 9, 6, 6]","[[3, 6, 4, 3, 7], [3, 7, 7, 4, 6]]","[[2, 0, 2, 2, 2], [0, 2, 2, 0, 2]]","[16, 14]",2,2,1,0.065,0.063,0.002,"[1, 9, 6]","supersize","control",-1,"False",5,5,2,2,19409,"True","implicit-mouselab",5,459976,"supersize",14
"133","mouselab","False","[3, 3, 13, 13, 1, 1]","[[6, 10, 6, 3, 5, 5], [6, 4, 3, 4, 3, 8], [6, 8, 4, 4, 6, 8], [7, 4, 7, 5, 5, 6], [8, 4, 8, 5, 4, 4]]","[[2, 0, 2, 0, 2, 2], [2, 2, 2, 2, 2, 2], [2, 0, 2, 2, 2, 2], [2, 2, 2, 2, 2, 2], [2, 2, 2, 2, 2, 2]]","[11, 6, 8, 2, 3]",14,3,1,0.073,0.071,0.002,"[3, 13, 1]","supersize","post-supersize",5,"False",5,6,5,2,21977,"True","implicit-mouselab",7,763511,"supersize",14
"134","mouselab","False","[27, 27, 26, 26, 6, 6]","[[8, 4, 6, 2, 6, 4], [3, 4, 6, 3, 4, 5], [6, 7, 9, 6, 2, 6], [8, 7, 5, 4, 8, 7], [9, 7, 6, 4, 9, 6]]","[[2, 2, 2, 2, 2, 2], [0, 2, 2, 2, 2, 2], [2, 2, 2, 2, 2, 2], [2, 2, 2, 2, 2, 2], [2, 2, 0, 0, 2, 2]]","[3, 4, 1, 2, 20]",28,4,0,0.079,0.077,0.002,"[27, 26, 6]","supersize","pre-supersize",3,"False",5,6,5,2,20978,"True","implicit-mouselab",8,792635,"supersize",14
"135","mouselab","False","[1, 1, 2, 2]","[[8, 6, 7, 9, 5], [5, 4, 6, 5, 4]]","[[2, 0, 0, 2, 2], [2, 2, 2, 2, 2]]","[25, 5]",20,5,2,0.068,0.0666666666666667,0.00133333333333333,"[1, 2]","supersize","control",-1,"False",5,5,2,2,81481,"True","implicit-mouselab",9,894287,"supersize",14
"136","mouselab","False","[3, 3, 7, 7, 0, 0]","[[4, 3, 7, 5, 3], [6, 6, 4, 3, 2]]","[[0, 2, 2, 0, 2], [2, 0, 2, 2, 2]]","[16, 14]",2,6,1,0.044,0.042,0.002,"[3, 7, 0]","supersize","control",-1,"False",5,5,2,2,13530,"True","implicit-mouselab",10,909961,"supersize",14
"137","mouselab","False","[7, 7, 10, 10, 22, 22, 9, 9]","[[4, 5, 3, 4, 3], [4, 5, 6, 1, 6], [6, 5, 4, 7, 3], [6, 6, 5, 5, 4], [2, 3, 5, 3, 1]]","[[2, 2, 2, 2, 2], [2, 0, 2, 0, 0], [2, 2, 2, 2, 2], [2, 2, 2, 2, 0], [2, 2, 2, 2, 2]]","[7, 13, 3, 3, 4]",16,7,4,0.041,0.0383333333333333,0.00266666666666667,"[7, 10, 22, 9]","supersize","control",-1,"False",5,5,5,2,19522,"True","implicit-mouselab",11,932893,"supersize",14
"138","mouselab","False","[0, 0, 3, 3, 21, 21]","[[5, 5, 7, 7, 3], [7, 6, 8, 2, 4], [6, 6, 6, 8, 6], [6, 5, 6, 6, 6], [6, 6, 5, 5, 5]]","[[0, 2, 2, 0, 2], [2, 2, 2, 2, 2], [2, 2, 2, 2, 2], [2, 2, 2, 0, 2], [2, 2, 2, 2, 2]]","[18, 4, 4, 3, 1]",24,8,3,0.063,0.061,0.002,"[0, 3, 21]","supersize","control",-1,"False",5,5,5,2,30555,"True","implicit-mouselab",12,966145,"supersize",14
"139","mouselab","False","[0, 0, 9, 9, 2, 2]","[[6, 4, 7, 8, 4, 5], [3, 5, 6, 5, 7, 5]]","[[0, 2, 0, 2, 2, 2], [2, 2, 2, 0, 2, 2]]","[17, 13]",4,9,2,0.066,0.064,0.002,"[0, 9, 2]","supersize","post-supersize",5,"False",5,6,2,2,77193,"True","implicit-mouselab",13,1045067,"supersize",14
"140","mouselab","False","[4, 4, 1, 1]","[[7, 4, 6, 1, 3, 4], [5, 8, 6, 7, 4, 5]]","[[2, 0, 2, 2, 0, 2], [2, 2, 2, 2, 2, 2]]","[22, 8]",14,10,3,0.026,0.0246666666666667,0.00133333333333333,"[4, 1]","supersize","pre-supersize",3,"True",5,6,2,2,48811,"True","implicit-mouselab",14,1095624,"supersize",14
"141","mouselab","True","[0, 0, 3, 3, 2, 2, 4, 4, 10, 10, 4, 4, 4, 4, 4, 4, 4, 4, 4, 9, 9, 8, 8, 6, 6, 7, 7, 1, 1]","[[1, 3, 2, 6, 4], [7, 3, 7, 8, 3]]","[[0, 0, 0, 0, 0], [0, 0, 0, 0, 0]]","[28, 2]",26,1,3,0.061,0.0543333333333333,0.00666666666666667,"[0, 3, 2, 4, 10, 9, 8, 6, 7, 1]","supersize","control",-1,"False",5,5,2,2,62725,"True","implicit-mouselab",4,164227,"supersize",16
"142","mouselab","True","[18, 18, 20, 20, 2, 2, 4, 4, 22, 22]","[[7, 4, 4, 1, 5], [4, 6, 4, 5, 6], [3, 4, 5, 4, 4], [3, 4, 6, 6, 4], [5, 6, 5, 3, 5]]","[[2, 2, 0, 2, 0], [2, 2, 2, 2, 2], [2, 2, 2, 2, 2], [0, 2, 0, 2, 0], [2, 2, 2, 2, 2]]","[10, 1, 2, 15, 2]",26,2,2,0.051,0.0476666666666667,0.00333333333333333,"[18, 20, 2, 4, 22]","supersize","control",-1,"False",5,5,5,2,15427,"True","implicit-mouselab",5,185816,"supersize",16
"143","mouselab","False","[7, 7, 9, 9, 11, 11]","[[4, 4, 6, 6, 3, 4], [5, 2, 6, 8, 6, 4], [5, 4, 7, 8, 4, 8], [8, 7, 7, 7, 7, 5], [4, 5, 7, 5, 3, 8]]","[[2, 2, 2, 2, 2, 2], [2, 0, 2, 0, 2, 0], [2, 2, 2, 2, 2, 2], [2, 2, 2, 2, 2, 2], [2, 2, 2, 2, 2, 2]]","[4, 14, 6, 2, 4]",16,3,5,0.054,0.052,0.002,"[7, 9, 11]","supersize","post-supersize",5,"True",5,6,5,2,36943,"True","implicit-mouselab",7,229410,"supersize",16
"144","mouselab","False","[25, 25, 28, 28]","[[5, 3, 9, 9, 6], [4, 7, 5, 6, 8], [5, 4, 5, 4, 3], [5, 1, 3, 3, 2], [3, 4, 5, 4, 3]]","[[2, 2, 2, 2, 2], [2, 2, 2, 2, 2], [2, 2, 2, 2, 2], [2, 2, 2, 2, 2], [2, 0, 2, 2, 0]]","[4, 6, 4, 6, 10]",8,4,1,0.039,0.0376666666666667,0.00133333333333333,"[25, 28]","supersize","control",-1,"False",5,5,5,2,7536,"True","implicit-mouselab",8,239054,"supersize",16
"145","mouselab","False","[25, 25]","[[2, 6, 9, 6, 3, 4], [7, 5, 5, 6, 8, 3], [4, 5, 7, 5, 5, 5], [5, 4, 6, 5, 1, 7], [5, 4, 7, 6, 3, 5]]","[[2, 2, 2, 2, 2, 2], [2, 2, 2, 2, 2, 2], [2, 2, 2, 2, 2, 2], [2, 2, 2, 2, 2, 2], [2, 0, 2, 2, 2, 2]]","[4, 1, 8, 5, 12]",16,5,1,0.046,0.0453333333333333,0.000666666666666667,"[25]","supersize","pre-supersize",1,"True",5,6,5,2,6388,"True","implicit-mouselab",9,247635,"supersize",16
"146","mouselab","False","[1, 1, 4, 4, 0, 0]","[[5, 5, 8, 5, 4], [7, 4, 5, 6, 7]]","[[0, 0, 2, 2, 0], [2, 2, 2, 2, 2]]","[27, 3]",24,6,1,0.049,0.047,0.002,"[1, 4, 0]","supersize","control",-1,"False",5,5,2,2,12741,"True","implicit-mouselab",10,261833,"supersize",16
"147","mouselab","False","[0, 0, 2, 2]","[[6, 5, 7, 8, 6, 8], [8, 6, 8, 8, 2, 7]]","[[0, 2, 0, 2, 2, 2], [2, 2, 2, 2, 2, 2]]","[21, 9]",12,7,5,0.077,0.0756666666666667,0.00133333333333333,"[0, 2]","supersize","post-supersize",5,"True",5,6,2,2,9314,"True","implicit-mouselab",11,272407,"supersize",16
"148","mouselab","False","[5, 5, 3, 3]","[[5, 6, 7, 3, 6, 5], [3, 8, 7, 8, 7, 9]]","[[2, 2, 2, 0, 2, 0], [2, 2, 2, 2, 2, 2]]","[27, 3]",24,8,5,0.054,0.0526666666666667,0.00133333333333333,"[5, 3]","supersize","pre-supersize",5,"True",5,6,2,2,10807,"True","implicit-mouselab",12,284242,"supersize",16
"149","mouselab","False","[25, 25, 26, 26, 24, 24]","[[7, 4, 2, 6, 3], [7, 2, 6, 5, 3], [4, 7, 4, 5, 6], [5, 7, 5, 6, 5], [7, 4, 3, 8, 5]]","[[2, 2, 2, 2, 2], [2, 2, 2, 2, 2], [2, 2, 2, 2, 2], [2, 2, 2, 2, 2], [0, 0, 0, 2, 2]]","[7, 2, 2, 6, 13]",16,9,0,0.064,0.062,0.002,"[25, 26, 24]","supersize","control",-1,"False",5,5,5,2,7941,"True","implicit-mouselab",13,293729,"supersize",16
"150","mouselab","False","[0, 0, 1, 1]","[[4, 7, 5, 4, 6], [3, 7, 5, 7, 6]]","[[0, 0, 2, 2, 2], [2, 2, 2, 2, 2]]","[21, 9]",12,10,1,0.07,0.0686666666666667,0.00133333333333333,"[0, 1]","supersize","control",-1,"False",5,5,2,2,5204,"True","implicit-mouselab",14,300158,"supersize",16
"151","mouselab","True","[2, 8, 8, 2, 9, 3, 4, 10, 7, 1, 0, 6, 6, 7, 1, 0, 3, 9, 10, 4, 3, 3, 10, 10, 10, 10, 10]","[[5, 6, 4, 4, 4], [5, 3, 6, 4, 2]]","[[0, 0, 0, 0, 0], [0, 0, 0, 0, 0]]","[12, 18]",6,1,1,0.042,0.0353333333333333,0.00666666666666667,"[8, 2, 6, 7, 1, 0, 3, 9, 10, 4]","supersize","control",-1,"False",5,5,2,2,14297,"True","implicit-mouselab",4,91348,"supersize",17
"152","mouselab","True","[19, 19]","[[3, 7, 4, 7, 5], [5, 3, 5, 6, 5], [6, 2, 4, 4, 4], [3, 5, 7, 6, 3], [4, 3, 6, 9, 8]]","[[2, 2, 2, 2, 2], [2, 2, 2, 2, 2], [2, 2, 2, 2, 2], [2, 0, 2, 2, 2], [2, 2, 2, 2, 2]]","[4, 4, 6, 10, 6]",8,2,1,0.04,0.0393333333333333,0.000666666666666667,"[19]","supersize","control",-1,"False",5,5,5,2,6166,"True","implicit-mouselab",5,101920,"supersize",17
"153","mouselab","False","[11, 11, 9, 9]","[[4, 6, 8, 9, 5, 7], [5, 8, 5, 6, 9, 3]]","[[2, 2, 2, 2, 2, 2], [2, 2, 2, 0, 2, 0]]","[12, 18]",6,3,3,0.072,0.0706666666666667,0.00133333333333333,"[11, 9]","supersize","pre-supersize",0,"False",5,6,2,2,6112,"True","implicit-mouselab",7,112840,"supersize",17
"154","mouselab","False","[9, 9, 7, 7]","[[8, 7, 6, 5, 5], [6, 4, 6, 3, 2]]","[[2, 2, 2, 2, 2], [2, 0, 2, 0, 2]]","[14, 16]",2,4,1,0.054,0.0526666666666667,0.00133333333333333,"[9, 7]","supersize","control",-1,"False",5,5,2,2,15422,"True","implicit-mouselab",8,129714,"supersize",17
"155","mouselab","False","[19, 19]","[[3, 4, 5, 5, 5, 3], [5, 5, 5, 5, 5, 7], [7, 6, 8, 8, 5, 3], [1, 5, 4, 7, 6, 6], [7, 5, 8, 2, 6, 6]]","[[2, 2, 2, 2, 2, 2], [2, 2, 2, 2, 2, 2], [2, 2, 2, 2, 2, 2], [2, 0, 2, 2, 2, 2], [2, 2, 2, 2, 2, 2]]","[2, 5, 5, 12, 6]",12,5,4,0.056,0.0553333333333333,0.000666666666666667,"[19]","supersize","post-supersize",5,"False",5,6,5,2,12316,"True","implicit-mouselab",9,146237,"supersize",17
"156","mouselab","False","[0, 1, 0, 1, 2, 2, 3, 3, 4, 4]","[[7, 8, 3, 3, 7], [5, 5, 5, 4, 5]]","[[0, 0, 0, 0, 0], [2, 2, 2, 2, 2]]","[21, 9]",12,6,1,0.071,0.0676666666666667,0.00333333333333333,"[0, 1, 2, 3, 4]","supersize","control",-1,"False",5,5,2,2,9251,"True","implicit-mouselab",10,156461,"supersize",17
"157","mouselab","False","[0, 0, 1, 1, 3, 3]","[[7, 6, 7, 8, 3], [3, 6, 7, 5, 3], [2, 3, 3, 7, 5], [8, 7, 4, 3, 7], [6, 8, 6, 5, 4]]","[[0, 0, 2, 0, 2], [2, 2, 2, 2, 2], [2, 2, 2, 2, 2], [2, 2, 2, 2, 2], [2, 2, 2, 2, 2]]","[10, 8, 7, 2, 3]",14,7,3,0.063,0.061,0.002,"[0, 1, 3]","supersize","control",-1,"False",5,5,5,2,9410,"True","implicit-mouselab",11,166909,"supersize",17
"158","mouselab","False","[15, 15, 13, 13, 12, 12, 14, 14, 16, 16, 17]","[[8, 5, 6, 1, 5, 5], [6, 7, 4, 4, 7, 4], [4, 5, 4, 3, 7, 9], [3, 6, 2, 7, 2, 2], [5, 3, 5, 7, 4, 6]]","[[2, 2, 2, 2, 2, 2], [2, 2, 2, 2, 2, 2], [0, 0, 0, 0, 0, 1], [2, 2, 2, 2, 2, 2], [2, 2, 2, 2, 2, 2]]","[1, 2, 19, 4, 4]",26,8,4,0.059,0.0553333333333333,0.00366666666666667,"[15, 13, 12, 14, 16]","supersize","pre-supersize",4,"True",5,6,5,2,15223,"True","implicit-mouselab",12,183721,"supersize",17
"159","mouselab","False","[1, 1, 2, 2]","[[5, 6, 7, 3, 6], [4, 4, 8, 4, 5], [1, 6, 3, 5, 5], [4, 1, 4, 2, 4], [5, 4, 4, 5, 3]]","[[2, 0, 0, 2, 2], [2, 2, 2, 2, 2], [2, 2, 2, 2, 2], [2, 2, 2, 2, 2], [2, 2, 2, 2, 2]]","[14, 4, 6, 3, 3]",16,9,2,0.057,0.0556666666666667,0.00133333333333333,"[1, 2]","supersize","control",-1,"False",5,5,5,2,5413,"True","implicit-mouselab",13,192347,"supersize",17
"160","mouselab","False","[8, 8, 9, 9, 7, 7, 6, 6]","[[8, 6, 5, 6, 8, 8], [8, 3, 4, 6, 4, 3]]","[[2, 2, 2, 2, 2, 2], [0, 0, 0, 0, 2, 2]]","[5, 25]",20,10,5,0.038,0.0353333333333333,0.00266666666666667,"[8, 9, 7, 6]","supersize","post-supersize",5,"True",5,6,2,2,10549,"True","implicit-mouselab",14,204913,"supersize",17
"161","mouselab","True","[]","[[6, 2, 1, 3, 7], [10, 7, 6, 2, 5]]","[[2, 2, 2, 2, 2], [2, 2, 2, 2, 2]]","[27, 3]",24,1,1,0.025,0.025,0,"[]","supersize","control",-1,"False",5,5,2,2,2413,"False","implicit-mouselab",4,141740,"supersize",18
"162","mouselab","True","[]","[[4, 7, 3, 5, 6], [3, 5, 7, 7, 5], [7, 4, 4, 4, 6], [5, 4, 3, 8, 6], [5, 6, 5, 6, 6]]","[[2, 2, 2, 2, 2], [2, 2, 2, 2, 2], [2, 2, 2, 2, 2], [2, 2, 2, 2, 2], [2, 2, 2, 2, 2]]","[4, 3, 4, 7, 12]",14,2,3,0.062,0.062,0,"[]","supersize","control",-1,"False",5,5,5,2,2446,"False","implicit-mouselab",5,149292,"supersize",18
"163","mouselab","False","[2, 2, 1, 1, 7, 7, 9, 9]","[[6, 5, 3, 9, 5], [4, 7, 6, 5, 1], [8, 7, 5, 3, 4], [7, 5, 3, 3, 4], [7, 7, 4, 4, 5]]","[[2, 0, 0, 2, 2], [2, 0, 2, 0, 2], [2, 2, 2, 2, 2], [2, 2, 2, 2, 2], [2, 2, 2, 2, 2]]","[11, 8, 4, 5, 2]",14,3,3,0.058,0.0553333333333333,0.00266666666666667,"[2, 1, 7, 9]","supersize","control",-1,"False",5,5,5,2,15552,"False","implicit-mouselab",7,173355,"supersize",18
"164","mouselab","False","[19, 19, 18, 18]","[[4, 7, 6, 2, 5], [5, 7, 5, 4, 4], [6, 1, 4, 6, 4], [7, 3, 7, 4, 4], [4, 6, 7, 4, 4]]","[[2, 2, 2, 2, 2], [2, 2, 2, 2, 2], [2, 2, 2, 2, 2], [0, 0, 2, 2, 2], [2, 2, 2, 2, 2]]","[8, 3, 3, 15, 1]",22,4,2,0.062,0.0606666666666667,0.00133333333333333,"[19, 18]","supersize","control",-1,"False",5,5,5,2,11412,"False","implicit-mouselab",8,187933,"supersize",18
"165","mouselab","False","[6, 6, 7, 7, 8, 8, 9, 9, 10, 10]","[[7, 5, 7, 8, 3], [6, 4, 5, 4, 3]]","[[2, 2, 2, 2, 2], [0, 0, 0, 0, 0]]","[2, 28]",26,5,0,0.061,0.0576666666666667,0.00333333333333333,"[6, 7, 8, 9, 10]","supersize","control",-1,"False",5,5,2,2,9164,"False","implicit-mouselab",9,199400,"supersize",18
"166","mouselab","False","[]","[[4, 4, 5, 7, 6, 8], [3, 5, 6, 3, 2, 5]]","[[2, 2, 2, 2, 2, 2], [2, 2, 2, 2, 2, 2]]","[10, 20]",10,6,3,0.043,0.043,0,"[]","supersize","pre-supersize",3,"True",5,6,2,2,7902,"False","implicit-mouselab",10,209142,"supersize",18
"167","mouselab","False","[3, 3, 2, 2, 0, 0]","[[5, 5, 6, 7, 6, 5], [5, 3, 5, 3, 7, 3]]","[[0, 2, 0, 0, 2, 2], [2, 2, 2, 2, 2, 2]]","[25, 5]",20,7,3,0.063,0.061,0.002,"[3, 2, 0]","supersize","post-supersize",5,"False",5,6,2,2,14322,"False","implicit-mouselab",11,224888,"supersize",18
"168","mouselab","False","[13, 13, 14, 14]","[[4, 5, 3, 1, 3, 5], [6, 4, 4, 2, 4, 4], [6, 6, 4, 8, 3, 6], [3, 7, 7, 4, 5, 4], [6, 5, 4, 5, 6, 5]]","[[2, 2, 2, 2, 2, 2], [2, 2, 2, 2, 2, 2], [2, 0, 0, 2, 2, 2], [2, 2, 2, 2, 2, 2], [2, 2, 2, 2, 2, 2]]","[3, 1, 20, 4, 2]",28,8,1,0.059,0.0576666666666667,0.00133333333333333,"[13, 14]","supersize","pre-supersize",1,"True",5,6,5,2,12061,"False","implicit-mouselab",12,238718,"supersize",18
"169","mouselab","False","[6, 6, 9, 9, 9]","[[2, 1, 5, 3, 8], [2, 6, 4, 7, 7]]","[[2, 2, 2, 2, 2], [0, 2, 2, 0, 2]]","[7, 23]",16,9,3,0.061,0.0596666666666667,0.00133333333333333,"[6, 9]","supersize","control",-1,"False",5,5,2,2,5936,"False","implicit-mouselab",13,246312,"supersize",18
"170","mouselab","False","[18, 18, 12, 12, 17, 17]","[[8, 4, 6, 4, 7, 6], [5, 3, 4, 6, 4, 3], [7, 6, 6, 4, 4, 6], [4, 6, 6, 2, 7, 8], [8, 5, 8, 6, 6, 1]]","[[2, 2, 2, 2, 2, 2], [2, 2, 2, 2, 2, 2], [0, 2, 2, 2, 2, 0], [0, 2, 2, 2, 2, 2], [2, 2, 2, 2, 2, 2]]","[2, 4, 11, 10, 3]",18,10,5,0.058,0.056,0.002,"[18, 12, 17]","supersize","post-supersize",5,"True",5,6,5,2,11818,"False","implicit-mouselab",14,260791,"supersize",18
"171","mouselab","True","[]","[[10, 4, 4, 6, 7], [5, 2, 7, 7, 4]]","[[2, 2, 2, 2, 2], [2, 2, 2, 2, 2]]","[15, 15]",0,1,1,0.03,0.03,0,"[]","supersize","control",-1,"False",5,5,2,2,5607,"True","implicit-mouselab",4,270501,"supersize",19
"172","mouselab","True","[6, 7, 8, 9, 10]","[[5, 5, 8, 5, 5], [6, 6, 6, 2, 4], [6, 6, 5, 4, 4], [4, 5, 5, 5, 7], [4, 6, 6, 4, 3]]","[[2, 2, 2, 2, 2], [1, 1, 1, 1, 1], [2, 2, 2, 2, 2], [2, 2, 2, 2, 2], [2, 2, 2, 2, 2]]","[6, 13, 1, 8, 2]",18,2,4,0.049,0.0473333333333333,0.00166666666666667,"[]","supersize","control",-1,"False",5,5,5,2,24547,"True","implicit-mouselab",5,300399,"supersize",19
"173","mouselab","False","[]","[[8, 2, 5, 6, 5], [7, 1, 5, 6, 6], [6, 3, 6, 8, 4], [0, 7, 4, 5, 6], [7, 3, 6, 4, 4]]","[[2, 2, 2, 2, 2], [2, 2, 2, 2, 2], [2, 2, 2, 2, 2], [2, 2, 2, 2, 2], [2, 2, 2, 2, 2]]","[6, 7, 4, 10, 3]",10,3,0,0.047,0.047,0,"[]","supersize","control",-1,"False",5,5,5,2,7492,"True","implicit-mouselab",7,324875,"supersize",19
"174","mouselab","False","[7]","[[4, 6, 4, 4, 2, 9], [5, 4, 5, 4, 8, 4], [4, 8, 7, 5, 6, 7], [6, 6, 8, 9, 3, 8], [2, 5, 5, 5, 6, 5]]","[[2, 2, 2, 2, 2, 2], [2, 1, 2, 2, 2, 2], [2, 2, 2, 2, 2, 2], [2, 2, 2, 2, 2, 2], [2, 2, 2, 2, 2, 2]]","[4, 17, 4, 2, 3]",22,4,5,0.054,0.0536666666666667,0.000333333333333333,"[]","supersize","post-supersize",5,"True",5,6,5,2,13171,"True","implicit-mouselab",8,340544,"supersize",19
"175","mouselab","False","[8, 9, 10, 4]","[[6, 4, 6, 4, 6], [4, 3, 6, 4, 4]]","[[2, 2, 2, 2, 1], [2, 2, 1, 1, 1]]","[23, 7]",16,5,3,0.04,0.0386666666666667,0.00133333333333333,"[]","supersize","control",-1,"False",5,5,2,2,4833,"True","implicit-mouselab",9,348294,"supersize",19
"176","mouselab","False","[]","[[7, 2, 5, 5, 4], [4, 5, 5, 4, 4], [6, 4, 5, 9, 4], [4, 3, 5, 4, 4], [2, 6, 2, 8, 7]]","[[2, 2, 2, 2, 2], [2, 2, 2, 2, 2], [2, 2, 2, 2, 2], [2, 2, 2, 2, 2], [2, 2, 2, 2, 2]]","[8, 15, 1, 1, 5]",22,6,2,0.045,0.045,0,"[]","supersize","control",-1,"False",5,5,5,2,2617,"True","implicit-mouselab",10,351928,"supersize",19
"177","mouselab","False","[8, 8, 8, 1, 1, 2, 2, 3, 3, 4, 4]","[[6, 6, 5, 6, 5, 6], [6, 2, 3, 6, 8, 5]]","[[2, 0, 0, 0, 0, 2], [2, 2, 0, 2, 2, 2]]","[29, 1]",28,7,1,0.059,0.0556666666666667,0.00333333333333333,"[8, 1, 2, 3, 4]","supersize","post-supersize",5,"False",5,6,2,2,22017,"True","implicit-mouselab",11,375381,"supersize",19
"178","mouselab","False","[6, 6, 8, 8, 10, 10]","[[3, 3, 6, 7, 4], [4, 7, 7, 7, 6]]","[[2, 2, 2, 2, 2], [0, 2, 0, 2, 0]]","[10, 20]",10,8,2,0.067,0.065,0.002,"[6, 8, 10]","supersize","control",-1,"False",5,5,2,2,9626,"True","implicit-mouselab",12,386732,"supersize",19
"179","mouselab","False","[8, 8, 7, 7, 10, 10, 9, 9, 28, 28]","[[4, 7, 7, 8, 3, 6], [5, 3, 6, 7, 7, 7], [5, 5, 5, 3, 3, 8], [6, 5, 5, 6, 8, 5], [4, 3, 9, 6, 8, 5]]","[[2, 2, 2, 2, 2, 2], [2, 0, 0, 0, 0, 2], [2, 2, 2, 2, 2, 2], [2, 2, 2, 2, 2, 2], [2, 2, 2, 2, 0, 2]]","[1, 11, 4, 5, 9]",16,9,2,0.066,0.0626666666666667,0.00333333333333333,"[8, 7, 10, 9, 28]","supersize","pre-supersize",2,"True",5,6,5,2,23525,"True","implicit-mouselab",13,411766,"supersize",19
"180","mouselab","False","[]","[[3, 6, 5, 4, 10, 9], [9, 5, 6, 3, 7, 5]]","[[2, 2, 2, 2, 2, 2], [2, 2, 2, 2, 2, 2]]","[20, 10]",10,10,5,0.077,0.077,0,"[]","supersize","pre-supersize",5,"True",5,6,2,2,5743,"True","implicit-mouselab",14,419001,"supersize",19
"181","mouselab","True","[2, 9, 4, 7, 0, 8, 3, 10, 1, 6, 1, 7, 9, 10, 4, 2, 8, 6, 0, 4, 3, 8, 8, 2]","[[4, 3, 4, 3, 5], [3, 5, 10, 5, 4]]","[[0, 0, 0, 0, 0], [0, 0, 0, 0, 0]]","[1, 29]",28,1,1,0.049,0.0423333333333333,0.00666666666666667,"[1, 7, 9, 10, 4, 2, 8, 6, 0, 3]","supersize","control",-1,"False",5,5,2,2,34352,"True","implicit-mouselab",4,106191,"supersize",20
"182","mouselab","True","[0, 2, 4]","[[5, 4, 3, 6, 5], [1, 6, 8, 3, 7], [6, 7, 6, 3, 3], [4, 7, 4, 1, 6], [5, 6, 9, 4, 4]]","[[1, 2, 1, 2, 1], [2, 2, 2, 2, 2], [2, 2, 2, 2, 2], [2, 2, 2, 2, 2], [2, 2, 2, 2, 2]]","[6, 12, 4, 5, 3]",12,2,3,0.034,0.033,0.001,"[]","supersize","control",-1,"False",5,5,5,2,4189,"True","implicit-mouselab",5,114606,"supersize",20
"183","mouselab","False","[]","[[4, 3, 0, 3, 7, 5], [4, 1, 7, 4, 5, 4]]","[[2, 2, 2, 2, 2, 2], [2, 2, 2, 2, 2, 2]]","[5, 25]",20,3,3,0.038,0.038,0,"[]","supersize","post-supersize",5,"False",5,6,2,2,3142,"True","implicit-mouselab",7,123028,"supersize",20
"184","mouselab","False","[14, 6, 3, 28, 19, 24, 10, 17]","[[4, 4, 6, 5, 6, 6], [6, 2, 5, 4, 4, 3], [6, 8, 6, 4, 7, 4], [4, 5, 2, 7, 4, 5], [2, 6, 5, 7, 5, 2]]","[[2, 2, 2, 1, 2, 2], [1, 2, 2, 2, 1, 2], [2, 2, 1, 2, 2, 1], [2, 1, 2, 2, 2, 2], [1, 2, 2, 2, 1, 2]]","[1, 4, 2, 10, 13]",22,4,4,0.047,0.0443333333333333,0.00266666666666667,"[]","supersize","post-supersize",5,"False",5,6,5,2,10238,"True","implicit-mouselab",8,135051,"supersize",20
"185","mouselab","False","[1, 3, 10]","[[4, 7, 4, 5, 3], [8, 1, 4, 6, 5]]","[[2, 1, 2, 1, 2], [2, 2, 2, 2, 1]]","[18, 12]",6,5,2,0.04,0.039,0.001,"[]","supersize","control",-1,"False",5,5,2,2,3102,"True","implicit-mouselab",9,139460,"supersize",20
"186","mouselab","False","[7, 10, 28, 15]","[[3, 4, 2, 7, 4, 6], [5, 4, 6, 7, 4, 7], [5, 4, 7, 6, 3, 5], [3, 4, 4, 6, 5, 7], [4, 5, 9, 6, 3, 8]]","[[2, 2, 2, 2, 2, 2], [2, 1, 2, 2, 1, 2], [2, 2, 2, 1, 2, 2], [2, 2, 2, 2, 2, 2], [2, 2, 2, 2, 1, 2]]","[1, 2, 9, 15, 3]",24,6,2,0.055,0.0536666666666667,0.00133333333333333,"[]","supersize","pre-supersize",1,"False",5,6,5,2,4999,"True","implicit-mouselab",10,146259,"supersize",20
"187","mouselab","False","[]","[[5, 8, 3, 4, 5], [5, 4, 7, 5, 6], [6, 7, 4, 6, 3], [5, 7, 8, 5, 1], [5, 7, 1, 2, 7]]","[[2, 2, 2, 2, 2], [2, 2, 2, 2, 2], [2, 2, 2, 2, 2], [2, 2, 2, 2, 2], [2, 2, 2, 2, 2]]","[7, 4, 8, 10, 1]",14,7,2,0.054,0.054,0,"[]","supersize","control",-1,"False",5,5,5,2,1063,"True","implicit-mouselab",11,150089,"supersize",20
"188","mouselab","False","[2]","[[6, 3, 5, 3, 4], [5, 6, 5, 6, 6]]","[[2, 2, 1, 2, 2], [2, 2, 2, 2, 2]]","[15, 15]",0,8,0,0.055,0.0546666666666667,0.000333333333333333,"[]","supersize","control",-1,"False",5,5,2,2,1735,"True","implicit-mouselab",12,153131,"supersize",20
"189","mouselab","False","[]","[[8, 8, 3, 6, 4, 4], [6, 6, 6, 2, 8, 4]]","[[2, 2, 2, 2, 2, 2], [2, 2, 2, 2, 2, 2]]","[25, 5]",20,9,4,0.047,0.047,0,"[]","supersize","pre-supersize",3,"False",5,6,2,2,1150,"True","implicit-mouselab",13,158441,"supersize",20
"190","mouselab","False","[1, 21, 26, 6, 10, 19]","[[5, 4, 5, 9, 5], [4, 4, 3, 2, 4], [3, 5, 5, 4, 7], [7, 6, 5, 1, 7], [3, 5, 6, 7, 3]]","[[2, 1, 2, 2, 2], [1, 2, 2, 2, 1], [2, 2, 2, 2, 2], [2, 1, 2, 1, 2], [2, 2, 1, 2, 2]]","[5, 11, 4, 2, 8]",14,10,2,0.045,0.043,0.002,"[]","supersize","control",-1,"False",5,5,5,2,5967,"True","implicit-mouselab",14,166584,"supersize",20
"191","mouselab","True","[1, 1]","[[4, 5, 5, 5, 7], [6, 6, 5, 7, 7], [7, 4, 6, 6, 5], [5, 5, 4, 8, 1], [6, 3, 8, 4, 3]]","[[2, 0, 2, 2, 2], [2, 2, 2, 2, 2], [2, 2, 2, 2, 2], [2, 2, 2, 2, 2], [2, 2, 2, 2, 2]]","[8, 4, 13, 4, 1]",18,1,2,0.054,0.0533333333333333,0.000666666666666667,"[1]","supersize","control",-1,"False",5,5,5,2,8815,"True","implicit-mouselab",4,184418,"supersize",21
"192","mouselab","True","[]","[[4, 8, 4, 3, 5], [4, 7, 5, 7, 3]]","[[2, 2, 2, 2, 2], [2, 2, 2, 2, 2]]","[21, 9]",12,2,2,0.043,0.043,0,"[]","supersize","control",-1,"False",5,5,2,2,5183,"True","implicit-mouselab",5,192992,"supersize",21
"193","mouselab","False","[6, 6, 7, 7, 8, 8, 9, 9, 10, 10]","[[4, 4, 7, 5, 4], [8, 1, 3, 3, 5]]","[[2, 2, 2, 2, 2], [0, 0, 0, 0, 0]]","[12, 18]",6,3,0,0.064,0.0606666666666667,0.00333333333333333,"[6, 7, 8, 9, 10]","supersize","control",-1,"False",5,5,2,2,7833,"True","implicit-mouselab",7,211329,"supersize",21
"194","mouselab","False","[18, 18, 19, 19, 20, 20, 21, 21, 22, 22, 23, 23]","[[5, 6, 3, 3, 4, 7], [5, 6, 3, 6, 7, 6], [4, 3, 2, 8, 9, 8], [3, 1, 3, 2, 4, 3], [5, 4, 7, 3, 6, 5]]","[[2, 2, 2, 2, 2, 2], [2, 2, 2, 2, 2, 2], [2, 2, 2, 2, 2, 2], [0, 0, 0, 0, 0, 0], [2, 2, 2, 2, 2, 2]]","[3, 2, 11, 13, 1]",24,4,4,0.061,0.057,0.004,"[18, 19, 20, 21, 22, 23]","supersize","post-supersize",5,"False",5,6,5,2,10051,"True","implicit-mouselab",8,225739,"supersize",21
"195","mouselab","False","[0, 0, 1, 1, 2, 2]","[[5, 3, 6, 4, 5], [6, 5, 6, 3, 4], [3, 4, 4, 4, 9], [5, 1, 6, 4, 9], [3, 5, 4, 5, 3]]","[[0, 0, 0, 2, 2], [2, 2, 2, 2, 2], [2, 2, 2, 2, 2], [2, 2, 2, 2, 2], [2, 2, 2, 2, 2]]","[11, 3, 1, 6, 9]",16,5,2,0.053,0.051,0.002,"[0, 1, 2]","supersize","control",-1,"False",5,5,5,2,5356,"True","implicit-mouselab",9,233141,"supersize",21
"196","mouselab","False","[6, 6, 7, 7, 8, 8, 9, 9, 10, 10, 11, 11]","[[5, 9, 6, 6, 6, 5], [6, 3, 5, 4, 7, 5]]","[[2, 2, 2, 2, 2, 2], [0, 0, 0, 0, 0, 0]]","[3, 27]",24,6,4,0.069,0.065,0.004,"[6, 7, 8, 9, 10, 11]","supersize","pre-supersize",5,"False",5,6,2,2,6685,"True","implicit-mouselab",10,251777,"supersize",21
"197","mouselab","False","[0, 0, 1, 1, 2, 2, 3, 3, 4, 4]","[[4, 5, 5, 5, 5], [4, 5, 6, 4, 6]]","[[0, 0, 0, 0, 0], [2, 2, 2, 2, 2]]","[29, 1]",28,7,4,0.05,0.0466666666666667,0.00333333333333333,"[0, 1, 2, 3, 4]","supersize","control",-1,"False",5,5,2,2,7007,"True","implicit-mouselab",11,261247,"supersize",21
"198","mouselab","False","[18, 18, 19, 19, 20, 20, 21, 21, 22, 22]","[[6, 6, 2, 4, 3], [6, 6, 4, 7, 6], [9, 6, 4, 5, 6], [3, 4, 2, 6, 7], [6, 4, 4, 7, 4]]","[[2, 2, 2, 2, 2], [2, 2, 2, 2, 2], [2, 2, 2, 2, 2], [0, 0, 0, 0, 0], [2, 2, 2, 2, 2]]","[3, 5, 6, 10, 6]",8,8,4,0.056,0.0526666666666667,0.00333333333333333,"[18, 19, 20, 21, 22]","supersize","control",-1,"False",5,5,5,2,6238,"True","implicit-mouselab",12,269154,"supersize",21
"199","mouselab","False","[6, 6, 7, 7, 8, 8, 9, 9, 10, 10, 11, 11]","[[4, 5, 4, 7, 6, 7], [4, 6, 9, 3, 7, 4]]","[[2, 2, 2, 2, 2, 2], [0, 0, 0, 0, 0, 0]]","[3, 27]",24,9,2,0.085,0.081,0.004,"[6, 7, 8, 9, 10, 11]","supersize","post-supersize",5,"False",5,6,2,2,8015,"True","implicit-mouselab",13,278712,"supersize",21
"200","mouselab","False","[6, 6, 7, 7, 8, 8, 9, 9, 10, 10, 11, 11]","[[3, 7, 5, 5, 6, 7], [3, 6, 5, 7, 4, 7], [5, 10, 7, 6, 7, 7], [3, 5, 3, 3, 3, 5], [5, 1, 6, 7, 5, 5]]","[[2, 2, 2, 2, 2, 2], [0, 0, 0, 0, 0, 0], [2, 2, 2, 2, 2, 2], [2, 2, 2, 2, 2, 2], [2, 2, 2, 2, 2, 2]]","[8, 12, 1, 2, 7]",18,10,3,0.062,0.058,0.004,"[6, 7, 8, 9, 10, 11]","supersize","pre-supersize",1,"False",5,6,5,2,7297,"True","implicit-mouselab",14,289290,"supersize",21
"201","mouselab","True","[13, 13, 15, 15, 15, 1, 1, 20, 20, 3, 3, 9, 9, 7, 7, 20, 18, 18, 6, 6, 15, 14, 14, 12, 12, 19, 19, 26, 26, 27, 27, 21, 21, 4, 4, 10, 10, 16, 16, 22, 22, 28, 28, 2, 2, 8, 8, 0, 0, 24, 24, 25, 25, 22, 4]","[[3, 2, 6, 1, 4], [3, 6, 5, 2, 6], [3, 3, 9, 3, 5], [5, 5, 1, 6, 5], [9, 3, 4, 5, 5]]","[[0, 0, 0, 0, 0], [0, 0, 0, 0, 0], [0, 0, 0, 0, 0], [0, 0, 0, 0, 0], [0, 0, 0, 0, 0]]","[14, 2, 8, 1, 5]",20,1,2,0.062,0.0453333333333333,0.0166666666666667,"[13, 15, 1, 20, 3, 9, 7, 18, 6, 14, 12, 19, 26, 27, 21, 4, 10, 16, 22, 28, 2, 8, 0, 24, 25]","supersize","control",-1,"False",5,5,5,2,70207,"False","implicit-mouselab",4,307797,"supersize",22
"202","mouselab","True","[1, 1, 8, 8]","[[1, 3, 5, 7, 8], [3, 3, 9, 7, 5]]","[[2, 0, 2, 2, 2], [2, 2, 0, 2, 2]]","[24, 6]",18,2,2,0.058,0.0566666666666667,0.00133333333333333,"[1, 8]","supersize","control",-1,"False",5,5,2,2,10425,"False","implicit-mouselab",5,321365,"supersize",22
"203","mouselab","False","[7, 7, 14, 14, 2, 2]","[[4, 8, 3, 5, 6], [4, 0, 5, 7, 6], [6, 5, 6, 5, 3], [5, 8, 4, 6, 7], [3, 6, 2, 5, 4]]","[[2, 2, 0, 2, 2], [2, 0, 2, 2, 2], [2, 2, 0, 2, 2], [2, 2, 2, 2, 2], [2, 2, 2, 2, 2]]","[1, 9, 13, 5, 2]",20,3,2,0.05,0.048,0.002,"[7, 14, 2]","supersize","control",-1,"False",5,5,5,2,8511,"False","implicit-mouselab",7,336987,"supersize",22
"204","mouselab","False","[4, 4, 10, 10, 2, 2]","[[4, 6, 5, 2, 2, 3], [5, 4, 7, 4, 3, 6]]","[[2, 2, 0, 2, 0, 2], [2, 2, 2, 2, 0, 2]]","[10, 20]",10,4,2,0.063,0.061,0.002,"[4, 10, 2]","supersize","pre-supersize",0,"False",5,6,2,2,9446,"False","implicit-mouselab",8,349013,"supersize",22
"205","mouselab","False","[6, 6]","[[5, 6, 1, 1, 5], [6, 5, 4, 7, 4]]","[[2, 2, 2, 2, 2], [0, 2, 2, 2, 2]]","[7, 23]",16,5,0,0.058,0.0573333333333333,0.000666666666666667,"[6]","supersize","control",-1,"False",5,5,2,2,8779,"False","implicit-mouselab",9,359006,"supersize",22
"206","mouselab","False","[9, 9, 1, 1, 2, 2]","[[8, 6, 6, 8, 6], [1, 5, 4, 4, 5]]","[[2, 0, 0, 2, 2], [2, 2, 2, 0, 2]]","[14, 16]",2,6,2,0.049,0.047,0.002,"[9, 1, 2]","supersize","control",-1,"False",5,5,2,2,7941,"False","implicit-mouselab",10,368026,"supersize",22
"207","mouselab","False","[18, 18, 9, 9, 21, 21]","[[3, 3, 6, 5, 9, 6], [5, 6, 2, 7, 5, 5], [5, 0, 8, 6, 4, 3], [3, 7, 5, 5, 4, 4], [4, 2, 1, 8, 4, 4]]","[[2, 2, 2, 2, 2, 2], [2, 2, 2, 0, 2, 2], [2, 2, 2, 2, 2, 2], [0, 2, 2, 0, 2, 2], [2, 2, 2, 2, 2, 2]]","[4, 8, 14, 3, 1]",20,7,3,0.061,0.059,0.002,"[18, 9, 21]","supersize","pre-supersize",0,"False",5,6,5,2,10446,"False","implicit-mouselab",11,380088,"supersize",22
"208","mouselab","False","[0, 0, 8, 8, 2, 2, 5, 5]","[[5, 7, 5, 3, 5, 5], [5, 5, 8, 8, 5, 6]]","[[0, 2, 0, 2, 2, 0], [2, 2, 0, 2, 2, 2]]","[22, 8]",14,8,2,0.058,0.0553333333333333,0.00266666666666667,"[0, 8, 2, 5]","supersize","post-supersize",5,"False",5,6,2,2,11325,"False","implicit-mouselab",12,392305,"supersize",22
"209","mouselab","False","[19, 19, 7, 7, 9, 9, 21, 21, 14, 14]","[[6, 7, 5, 7, 4], [6, 6, 5, 6, 6], [7, 5, 5, 5, 5], [2, 5, 5, 6, 2], [5, 4, 7, 3, 5]]","[[2, 2, 2, 2, 2], [2, 0, 2, 0, 2], [2, 2, 0, 2, 2], [2, 0, 2, 0, 2], [2, 2, 2, 2, 2]]","[4, 9, 7, 3, 7]",10,9,3,0.052,0.0486666666666667,0.00333333333333333,"[19, 7, 9, 21, 14]","supersize","control",-1,"False",5,5,5,2,10802,"False","implicit-mouselab",13,404219,"supersize",22
"210","mouselab","False","[0, 0, 11, 11]","[[7, 7, 4, 2, 5, 3], [4, 4, 7, 5, 6, 7], [3, 4, 6, 5, 5, 5], [3, 6, 4, 6, 5, 5], [6, 2, 5, 7, 2, 8]]","[[0, 2, 2, 2, 2, 2], [2, 2, 2, 2, 2, 0], [2, 2, 2, 2, 2, 2], [2, 2, 2, 2, 2, 2], [2, 2, 2, 2, 2, 2]]","[13, 2, 8, 3, 4]",18,10,5,0.047,0.0456666666666667,0.00133333333333333,"[0, 11]","supersize","post-supersize",5,"True",5,6,5,2,8000,"False","implicit-mouselab",14,413403,"supersize",22
"211","mouselab","True","[3, 3, 1, 1, 1, 9, 9, 7, 7, 8, 8, 2, 2, 0, 0, 6, 6, 6, 4, 4, 10, 10]","[[8, 5, 4, 5, 7], [2, 6, 3, 7, 10]]","[[0, 0, 0, 0, 0], [0, 0, 0, 0, 0]]","[29, 1]",28,1,3,0.051,0.0443333333333333,0.00666666666666667,"[3, 1, 9, 7, 8, 2, 0, 6, 4, 10]","supersize","control",-1,"False",5,5,2,2,36053,"True","implicit-mouselab",4,182776,"supersize",23
"212","mouselab","True","[]","[[7, 5, 6, 4, 7], [5, 4, 10, 5, 6], [7, 2, 3, 3, 5], [5, 4, 6, 6, 6], [1, 4, 5, 5, 7]]","[[2, 2, 2, 2, 2], [2, 2, 2, 2, 2], [2, 2, 2, 2, 2], [2, 2, 2, 2, 2], [2, 2, 2, 2, 2]]","[13, 6, 2, 4, 5]",14,2,2,0.064,0.064,0,"[]","supersize","control",-1,"False",5,5,5,2,4087,"True","implicit-mouselab",5,189800,"supersize",23
"213","mouselab","False","[]","[[4, 4, 5, 8, 8], [5, 8, 3, 4, 2]]","[[2, 2, 2, 2, 2], [2, 2, 2, 2, 2]]","[7, 23]",16,3,3,0.049,0.049,0,"[]","supersize","control",-1,"False",5,5,2,2,1070,"True","implicit-mouselab",7,194552,"supersize",23
"214","mouselab","False","[]","[[6, 4, 5, 7, 2], [6, 7, 6, 7, 2]]","[[2, 2, 2, 2, 2], [2, 2, 2, 2, 2]]","[23, 7]",16,4,1,0.047,0.047,0,"[]","supersize","control",-1,"False",5,5,2,2,1149,"True","implicit-mouselab",8,196512,"supersize",23
"215","mouselab","False","[]","[[5, 5, 3, 3, 5], [6, 5, 3, 3, 2], [2, 7, 4, 8, 4], [6, 4, 5, 7, 7], [2, 4, 8, 7, 6]]","[[2, 2, 2, 2, 2], [2, 2, 2, 2, 2], [2, 2, 2, 2, 2], [2, 2, 2, 2, 2], [2, 2, 2, 2, 2]]","[14, 1, 6, 8, 1]",20,5,2,0.039,0.039,0,"[]","supersize","control",-1,"False",5,5,5,2,871,"True","implicit-mouselab",9,198384,"supersize",23
"216","mouselab","False","[]","[[7, 5, 5, 5, 6], [4, 6, 3, 5, 6], [1, 2, 7, 2, 8], [6, 4, 5, 4, 6], [6, 6, 7, 7, 6]]","[[2, 2, 2, 2, 2], [2, 2, 2, 2, 2], [2, 2, 2, 2, 2], [2, 2, 2, 2, 2], [2, 2, 2, 2, 2]]","[14, 3, 7, 4, 2]",18,6,4,0.065,0.065,0,"[]","supersize","control",-1,"False",5,5,5,2,902,"True","implicit-mouselab",10,200225,"supersize",23
"217","mouselab","False","[]","[[5, 3, 8, 3, 5, 5], [2, 6, 5, 6, 6, 5], [2, 5, 5, 3, 4, 4], [5, 6, 3, 4, 2, 4], [5, 2, 4, 7, 3, 7]]","[[2, 2, 2, 2, 2, 2], [2, 2, 2, 2, 2, 2], [2, 2, 2, 2, 2, 2], [2, 2, 2, 2, 2, 2], [2, 2, 2, 2, 2, 2]]","[12, 2, 2, 8, 6]",16,7,5,0.051,0.051,0,"[]","supersize","post-supersize",5,"True",5,6,5,2,5192,"True","implicit-mouselab",11,207049,"supersize",23
"218","mouselab","False","[]","[[7, 5, 4, 5, 4, 6], [2, 3, 5, 6, 4, 7]]","[[2, 2, 2, 2, 2, 2], [2, 2, 2, 2, 2, 2]]","[23, 7]",16,8,1,0.045,0.045,0,"[]","supersize","pre-supersize",1,"True",5,6,2,2,3846,"True","implicit-mouselab",12,211992,"supersize",23
"219","mouselab","False","[]","[[5, 5, 7, 5, 4, 7], [3, 6, 2, 5, 5, 5]]","[[2, 2, 2, 2, 2, 2], [2, 2, 2, 2, 2, 2]]","[19, 11]",8,9,5,0.063,0.063,0,"[]","supersize","post-supersize",5,"True",5,6,2,2,4199,"True","implicit-mouselab",13,217273,"supersize",23
"220","mouselab","False","[]","[[5, 5, 2, 8, 5, 4], [6, 7, 7, 5, 9, 4], [6, 4, 3, 4, 3, 5], [4, 5, 7, 6, 4, 7], [7, 7, 4, 7, 1, 3]]","[[2, 2, 2, 2, 2, 2], [2, 2, 2, 2, 2, 2], [2, 2, 2, 2, 2, 2], [2, 2, 2, 2, 2, 2], [2, 2, 2, 2, 2, 2]]","[4, 1, 7, 1, 17]",24,10,2,0.037,0.037,0,"[]","supersize","pre-supersize",2,"True",5,6,5,2,1390,"True","implicit-mouselab",14,219745,"supersize",23
"221","mouselab","True","[1, 1, 3, 3, 19, 19, 22, 22, 18, 18, 20, 20, 21, 21, 4, 4]","[[5, 5, 5, 6, 6], [5, 4, 6, 6, 6], [4, 3, 6, 4, 8], [1, 5, 3, 4, 6], [4, 5, 4, 5, 6]]","[[2, 0, 2, 0, 0], [2, 2, 2, 2, 2], [2, 2, 2, 2, 2], [0, 0, 0, 0, 0], [2, 2, 2, 2, 2]]","[14, 5, 2, 6, 3]",16,1,4,0.061,0.0556666666666667,0.00533333333333333,"[1, 3, 19, 22, 18, 20, 21, 4]","supersize","control",-1,"False",5,5,5,2,45589,"True","implicit-mouselab",4,218638,"supersize",24
"222","mouselab","True","[0, 0, 3, 3, 7, 7, 4, 4, 8, 8]","[[4, 6, 4, 2, 6], [3, 2, 4, 5, 3]]","[[0, 2, 2, 0, 0], [2, 0, 0, 2, 2]]","[28, 2]",26,2,4,0.058,0.0546666666666667,0.00333333333333333,"[0, 3, 7, 4, 8]","supersize","control",-1,"False",5,5,2,2,23206,"True","implicit-mouselab",5,244509,"supersize",24
"223","mouselab","False","[15, 15, 17, 17, 0, 0, 2, 2, 4, 4, 12, 12, 5, 5, 14, 14, 16, 16, 1, 1]","[[5, 6, 2, 3, 5, 5], [6, 6, 1, 7, 7, 7], [6, 7, 4, 2, 3, 6], [7, 7, 2, 4, 7, 7], [2, 5, 3, 2, 3, 6]]","[[0, 0, 0, 2, 0, 0], [2, 2, 2, 2, 2, 2], [0, 2, 0, 0, 0, 0], [2, 2, 2, 2, 2, 2], [2, 2, 2, 2, 2, 2]]","[6, 1, 13, 5, 5]",14,3,1,0.064,0.0573333333333333,0.00666666666666667,"[15, 17, 0, 2, 4, 12, 5, 14, 16, 1]","supersize","pre-supersize",1,"True",5,6,5,2,29422,"True","implicit-mouselab",7,281156,"supersize",24
"224","mouselab","False","[6, 6, 10, 10, 2, 2, 0, 0, 8, 8, 4, 4, 1, 1, 3, 3, 9, 9, 7, 7]","[[5, 4, 5, 5, 2], [4, 4, 4, 1, 4]]","[[0, 0, 0, 0, 0], [0, 0, 0, 0, 0]]","[18, 12]",6,4,2,0.046,0.0393333333333333,0.00666666666666667,"[6, 10, 2, 0, 8, 4, 1, 3, 9, 7]","supersize","control",-1,"False",5,5,2,2,35744,"True","implicit-mouselab",8,324365,"supersize",24
"225","mouselab","False","[0, 0, 7, 7, 2, 2, 9, 9, 4, 4]","[[7, 4, 6, 3, 5, 5], [3, 7, 6, 5, 4, 8]]","[[0, 2, 0, 2, 0, 2], [2, 0, 2, 0, 2, 2]]","[15, 15]",0,5,0,0.05,0.0466666666666667,0.00333333333333333,"[0, 7, 2, 9, 4]","supersize","post-supersize",5,"False",5,6,2,2,29375,"True","implicit-mouselab",9,364621,"supersize",24
"226","mouselab","False","[24, 24, 27, 27, 9, 9, 6, 6, 26, 26, 25, 25]","[[5, 4, 10, 5, 5], [5, 6, 3, 2, 4], [3, 7, 5, 5, 4], [4, 3, 5, 3, 5], [4, 4, 5, 7, 7]]","[[2, 2, 2, 2, 2], [0, 2, 2, 0, 2], [2, 2, 2, 2, 2], [2, 2, 2, 2, 2], [0, 0, 0, 0, 2]]","[2, 6, 5, 4, 13]",14,6,3,0.05,0.046,0.004,"[24, 27, 9, 6, 26, 25]","supersize","control",-1,"False",5,5,5,2,45974,"True","implicit-mouselab",10,413453,"supersize",24
"227","mouselab","False","[25, 25, 27, 27, 24, 24, 28, 28, 26, 26, 12, 12, 15, 15]","[[3, 4, 4, 5, 4], [5, 1, 5, 6, 7], [6, 6, 6, 4, 6], [6, 4, 3, 3, 4], [7, 5, 4, 7, 6]]","[[2, 2, 2, 2, 2], [2, 2, 2, 2, 2], [0, 2, 2, 0, 2], [2, 2, 2, 2, 2], [0, 0, 0, 0, 0]]","[2, 6, 7, 5, 10]",10,7,0,0.059,0.0543333333333333,0.00466666666666667,"[25, 27, 24, 28, 26, 12, 15]","supersize","control",-1,"False",5,5,5,2,18918,"True","implicit-mouselab",11,437317,"supersize",24
"228","mouselab","False","[0, 0, 11, 11, 3, 3, 1, 1, 6, 6, 2, 2, 8, 8]","[[5, 4, 7, 3, 5, 3], [3, 3, 6, 4, 7, 3]]","[[0, 0, 0, 0, 2, 2], [0, 2, 0, 2, 2, 0]]","[25, 5]",20,8,2,0.068,0.0633333333333333,0.00466666666666667,"[0, 11, 3, 1, 6, 2, 8]","supersize","pre-supersize",5,"False",5,6,2,2,25495,"True","implicit-mouselab",12,465797,"supersize",24
"229","mouselab","False","[18, 18, 19, 19, 21, 21, 22, 22, 20, 20, 16, 16, 15, 15, 23, 23]","[[1, 7, 4, 6, 5, 5], [3, 5, 9, 8, 6, 8], [6, 5, 4, 5, 4, 0], [3, 4, 5, 8, 6, 8], [7, 8, 4, 4, 4, 5]]","[[2, 2, 2, 2, 2, 2], [2, 2, 2, 2, 2, 2], [2, 2, 2, 0, 0, 2], [0, 0, 0, 0, 0, 0], [2, 2, 2, 2, 2, 2]]","[3, 2, 9, 10, 6]",14,9,3,0.061,0.0556666666666667,0.00533333333333333,"[18, 19, 21, 22, 20, 16, 15, 23]","supersize","post-supersize",5,"False",5,6,5,2,30647,"True","implicit-mouselab",13,498637,"supersize",24
"230","mouselab","False","[0, 0, 1, 1, 2, 2, 4, 4, 3, 3]","[[5, 6, 5, 2, 3], [6, 4, 4, 6, 8]]","[[0, 0, 0, 0, 0], [2, 2, 2, 2, 2]]","[22, 8]",14,10,1,0.055,0.0516666666666667,0.00333333333333333,"[0, 1, 2, 4, 3]","supersize","control",-1,"False",5,5,2,2,9198,"True","implicit-mouselab",14,510805,"supersize",24
"231","mouselab","True","[27, 1, 14, 18, 26, 28, 25, 24, 13, 15, 16, 9, 3, 4, 10, 20, 8, 2, 7, 0, 12, 6, 19, 21, 22, 28, 14, 14, 25, 24, 26, 27, 21, 22, 13, 12, 15, 16, 20, 19, 18, 6, 0, 1, 7, 2, 8, 3, 9, 4, 10, 28, 28, 22]","[[5, 6, 1, 4, 5], [6, 6, 8, 3, 1], [8, 4, 6, 8, 4], [5, 5, 5, 4, 3], [7, 5, 5, 5, 4]]","[[0, 0, 0, 0, 0], [0, 0, 0, 0, 0], [0, 0, 0, 0, 0], [0, 0, 0, 0, 0], [0, 0, 0, 0, 0]]","[5, 1, 8, 7, 9]",12,1,0,0.064,0.0473333333333333,0.0166666666666667,"[28, 14, 25, 24, 26, 27, 21, 22, 13, 12, 15, 16, 20, 19, 18, 6, 0, 1, 7, 2, 8, 3, 9, 4, 10]","supersize","control",-1,"False",5,5,5,2,81590,"False","implicit-mouselab",4,356861,"supersize",25
"232","mouselab","True","[7, 7, 8, 8, 9, 9, 10, 10, 6, 6, 0, 0, 1, 1, 2, 2, 3, 3, 4, 4]","[[6, 9, 7, 2, 3], [6, 6, 6, 6, 4]]","[[0, 0, 0, 0, 0], [0, 0, 0, 0, 0]]","[4, 26]",22,2,1,0.064,0.0573333333333333,0.00666666666666667,"[7, 8, 9, 10, 6, 0, 1, 2, 3, 4]","supersize","control",-1,"False",5,5,2,2,23893,"False","implicit-mouselab",5,382434,"supersize",25
"233","mouselab","False","[0, 1, 0, 0, 1, 1, 2, 2, 3, 3, 4, 4, 21, 21]","[[5, 1, 3, 6, 5], [5, 6, 5, 6, 3], [3, 3, 7, 6, 4], [4, 4, 4, 5, 7], [6, 7, 5, 5, 3]]","[[0, 0, 0, 0, 0], [2, 2, 2, 2, 2], [2, 2, 2, 2, 2], [2, 2, 2, 0, 2], [2, 2, 2, 2, 2]]","[15, 4, 4, 5, 2]",18,3,3,0.058,0.054,0.004,"[0, 1, 2, 3, 4, 21]","supersize","control",-1,"False",5,5,5,2,13312,"False","implicit-mouselab",7,400108,"supersize",25
"234","mouselab","False","[10, 10, 11, 11, 9, 9, 8, 8, 6, 6, 7, 7, 1, 1]","[[7, 5, 9, 6, 9, 6], [5, 7, 4, 5, 2, 5]]","[[2, 0, 2, 2, 2, 2], [0, 0, 0, 0, 0, 0]]","[15, 15]",0,4,4,0.055,0.0503333333333333,0.00466666666666667,"[10, 11, 9, 8, 6, 7, 1]","supersize","pre-supersize",4,"True",5,6,2,2,15710,"False","implicit-mouselab",8,417484,"supersize",25
"235","mouselab","False","[17, 17]","[[8, 5, 5, 7, 5, 7], [2, 3, 5, 6, 3, 5], [3, 2, 4, 5, 3, 7], [4, 6, 3, 6, 6, 4], [6, 6, 7, 4, 6, 5]]","[[2, 2, 2, 2, 2, 2], [2, 2, 2, 2, 2, 2], [2, 2, 2, 2, 2, 0], [2, 2, 2, 2, 2, 2], [2, 2, 2, 2, 2, 2]]","[1, 4, 20, 2, 3]",28,5,5,0.063,0.0623333333333333,0.000666666666666667,"[17]","supersize","pre-supersize",5,"True",5,6,5,2,13543,"False","implicit-mouselab",9,433506,"supersize",25
"236","mouselab","False","[27, 27, 15, 15, 9, 9, 3, 3, 14, 14, 16, 16, 25, 25, 26, 26, 11, 11, 5, 5, 29, 29]","[[3, 6, 3, 5, 3, 4], [7, 2, 4, 2, 5, 5], [4, 0, 5, 5, 5, 7], [7, 8, 6, 6, 8, 3], [5, 3, 3, 6, 6, 5]]","[[2, 2, 2, 0, 2, 0], [2, 2, 2, 0, 2, 0], [2, 2, 0, 0, 0, 2], [2, 2, 2, 2, 2, 2], [2, 0, 0, 0, 2, 0]]","[6, 6, 9, 3, 6]",6,6,5,0.052,0.0446666666666667,0.00733333333333333,"[27, 15, 9, 3, 14, 16, 25, 26, 11, 5, 29]","supersize","post-supersize",5,"True",5,6,5,2,53073,"False","implicit-mouselab",10,488923,"supersize",25
"237","mouselab","False","[4, 4, 10, 10, 0, 0, 6, 6, 3, 3, 9, 9, 2, 2, 5, 5]","[[3, 5, 5, 3, 5, 0], [5, 6, 4, 4, 5, 5]]","[[0, 2, 0, 0, 0, 0], [0, 2, 2, 0, 0, 2]]","[21, 9]",12,7,4,0.05,0.0446666666666667,0.00533333333333333,"[4, 10, 0, 6, 3, 9, 2, 5]","supersize","post-supersize",5,"False",5,6,2,2,20821,"False","implicit-mouselab",11,511339,"supersize",25
"238","mouselab","False","[24, 24, 28, 28, 27, 27, 21, 21, 22, 22, 20, 20, 19, 19, 18, 18, 25, 25]","[[3, 2, 3, 6, 8], [8, 4, 7, 7, 5], [5, 4, 3, 5, 4], [4, 6, 3, 4, 5], [3, 6, 6, 7, 7]]","[[2, 2, 2, 2, 2], [2, 2, 2, 2, 2], [2, 2, 2, 2, 2], [0, 0, 0, 0, 0], [0, 0, 2, 0, 0]]","[4, 6, 3, 8, 9]",10,8,4,0.059,0.053,0.006,"[24, 28, 27, 21, 22, 20, 19, 18, 25]","supersize","control",-1,"False",5,5,5,2,21817,"False","implicit-mouselab",12,535390,"supersize",25
"239","mouselab","False","[4, 4, 10, 10, 3, 3, 3, 2, 2, 1, 1, 0, 0]","[[5, 4, 5, 7, 6], [6, 4, 6, 6, 7]]","[[0, 0, 0, 0, 0], [2, 2, 2, 2, 0]]","[29, 1]",28,9,3,0.07,0.066,0.004,"[4, 10, 3, 2, 1, 0]","supersize","control",-1,"False",5,5,2,2,11036,"False","implicit-mouselab",13,547873,"supersize",25
"240","mouselab","False","[10, 10, 6, 6, 7, 7, 8, 8, 9, 9, 4, 4, 3, 3]","[[4, 5, 5, 6, 4], [4, 5, 2, 5, 3]]","[[2, 2, 2, 0, 0], [0, 0, 0, 0, 0]]","[11, 19]",8,10,3,0.054,0.0493333333333333,0.00466666666666667,"[10, 6, 7, 8, 9, 4, 3]","supersize","control",-1,"False",5,5,2,2,10890,"False","implicit-mouselab",14,560165,"supersize",25
"241","mouselab","True","[26, 26, 22, 22, 6, 6, 3, 3, 13, 13, 24, 24, 12, 12, 8, 8, 1, 1]","[[5, 4, 8, 6, 7], [2, 4, 8, 4, 4], [4, 3, 4, 3, 3], [4, 4, 4, 5, 5], [5, 6, 4, 5, 5]]","[[2, 0, 2, 0, 2], [0, 2, 0, 2, 2], [0, 0, 2, 2, 2], [2, 2, 2, 2, 0], [0, 2, 0, 2, 2]]","[1, 6, 8, 5, 10]",12,1,4,0.043,0.037,0.006,"[26, 22, 6, 3, 13, 24, 12, 8, 1]","supersize","control",-1,"False",5,5,5,2,28755,"False","implicit-mouselab",4,160304,"supersize",26
"242","mouselab","True","[0, 0, 9, 9, 7, 7, 4, 4, 2, 2, 10, 10, 6, 6, 1, 1, 8, 8, 3, 3, 9]","[[5, 7, 5, 4, 6], [7, 4, 5, 7, 8]]","[[0, 0, 0, 0, 0], [0, 0, 0, 0, 0]]","[15, 15]",0,2,4,0.07,0.0633333333333333,0.00666666666666667,"[0, 9, 7, 4, 2, 10, 6, 1, 8, 3]","supersize","control",-1,"False",5,5,2,2,30756,"False","implicit-mouselab",5,196690,"supersize",26
"243","mouselab","False","[0, 0, 6, 6, 2, 2, 8, 8, 4, 4, 10, 10, 3, 3, 9, 9, 1, 1, 7, 7]","[[4, 4, 4, 5, 4], [7, 4, 4, 5, 6]]","[[0, 0, 0, 0, 0], [0, 0, 0, 0, 0]]","[21, 9]",12,3,0,0.049,0.0423333333333333,0.00666666666666667,"[0, 6, 2, 8, 4, 10, 3, 9, 1, 7]","supersize","control",-1,"False",5,5,2,2,27929,"False","implicit-mouselab",7,229586,"supersize",26
"244","mouselab","False","[0, 0, 12, 12, 24, 24, 6, 6, 18, 18]","[[8, 2, 7, 3, 4], [7, 2, 3, 10, 4], [8, 3, 3, 3, 5], [2, 5, 1, 6, 3], [2, 5, 3, 3, 4]]","[[0, 2, 2, 2, 2], [0, 2, 2, 2, 2], [0, 2, 2, 2, 2], [0, 2, 2, 2, 2], [0, 2, 2, 2, 2]]","[10, 4, 10, 4, 2]",16,4,0,0.067,0.0636666666666667,0.00333333333333333,"[0, 12, 24, 6, 18]","supersize","control",-1,"False",5,5,5,2,21078,"False","implicit-mouselab",8,253648,"supersize",26
"245","mouselab","False","[4, 4, 10, 10, 2, 2, 8, 8, 0, 0, 6, 6, 5, 5]","[[6, 3, 7, 6, 5, 6], [7, 4, 6, 5, 2, 8]]","[[0, 2, 0, 2, 0, 0], [0, 2, 0, 2, 0, 2]]","[1, 29]",28,5,5,0.079,0.0743333333333333,0.00466666666666667,"[4, 10, 2, 8, 0, 6, 5]","supersize","post-supersize",5,"True",5,6,2,2,20794,"False","implicit-mouselab",9,276285,"supersize",26
"246","mouselab","False","[4, 4, 10, 10, 16, 16, 22, 22, 28, 28]","[[4, 4, 5, 4, 3], [1, 3, 4, 8, 4], [6, 4, 5, 4, 6], [5, 6, 4, 6, 2], [6, 8, 4, 5, 7]]","[[2, 2, 2, 2, 0], [2, 2, 2, 2, 0], [2, 2, 2, 2, 0], [2, 2, 2, 2, 0], [2, 2, 2, 2, 0]]","[4, 11, 2, 3, 10]",18,6,4,0.048,0.0446666666666667,0.00333333333333333,"[4, 10, 16, 22, 28]","supersize","control",-1,"False",5,5,5,2,11284,"False","implicit-mouselab",10,289959,"supersize",26
"247","mouselab","False","[5, 5, 9, 9, 3, 3, 7, 7, 1, 1]","[[4, 4, 8, 2, 5, 4], [5, 6, 3, 6, 6, 5]]","[[2, 0, 2, 0, 2, 0], [2, 0, 2, 0, 2, 2]]","[26, 4]",22,7,1,0.043,0.0396666666666667,0.00333333333333333,"[5, 9, 3, 7, 1]","supersize","pre-supersize",5,"False",5,6,2,2,15918,"False","implicit-mouselab",11,307313,"supersize",26
"248","mouselab","False","[26, 26, 25, 25, 19, 19, 13, 13, 7, 7, 1, 1]","[[7, 4, 7, 5, 5, 4], [3, 6, 3, 8, 4, 3], [4, 3, 4, 6, 6, 2], [4, 4, 5, 5, 7, 4], [4, 7, 0, 7, 5, 4]]","[[2, 0, 2, 2, 2, 2], [2, 0, 2, 2, 2, 2], [2, 0, 2, 2, 2, 2], [2, 0, 2, 2, 2, 2], [2, 0, 0, 2, 2, 2]]","[4, 5, 4, 6, 11]",10,8,1,0.053,0.049,0.004,"[26, 25, 19, 13, 7, 1]","supersize","post-supersize",5,"False",5,6,5,2,18795,"False","implicit-mouselab",12,332200,"supersize",26
"249","mouselab","False","[10, 10, 4, 4, 8, 8, 2, 2, 6, 6, 0, 0]","[[6, 4, 5, 7, 5], [5, 3, 10, 6, 1]]","[[0, 2, 0, 2, 0], [0, 2, 0, 2, 0]]","[8, 22]",14,9,2,0.087,0.083,0.004,"[10, 4, 8, 2, 6, 0]","supersize","control",-1,"False",5,5,2,2,11259,"False","implicit-mouselab",13,344987,"supersize",26
"250","mouselab","False","[25, 25, 13, 13, 7, 7, 1, 1]","[[4, 6, 3, 3, 9, 5], [3, 2, 4, 10, 8, 4], [6, 5, 6, 5, 6, 3], [4, 7, 2, 3, 7, 5], [9, 4, 7, 3, 5, 6]]","[[2, 0, 2, 2, 2, 2], [2, 0, 2, 2, 2, 2], [2, 0, 2, 2, 2, 2], [2, 2, 2, 2, 2, 2], [2, 0, 2, 2, 2, 2]]","[4, 5, 5, 15, 1]",18,10,1,0.056,0.0533333333333333,0.00266666666666667,"[25, 13, 7, 1]","supersize","pre-supersize",1,"True",5,6,5,2,12368,"False","implicit-mouselab",14,358990,"supersize",26
"251","mouselab","True","[]","[[6, 4, 3, 4, 3], [4, 2, 3, 9, 2]]","[[2, 2, 2, 2, 2], [2, 2, 2, 2, 2]]","[14, 16]",2,1,3,0.067,0.067,0,"[]","supersize","control",-1,"False",5,5,2,2,13897,"False","implicit-mouselab",4,255184,"supersize",27
"252","mouselab","True","[]","[[3, 5, 4, 6, 4], [6, 3, 4, 5, 8], [6, 8, 7, 5, 6], [4, 4, 6, 8, 5], [5, 5, 4, 3, 5]]","[[2, 2, 2, 2, 2], [2, 2, 2, 2, 2], [2, 2, 2, 2, 2], [2, 2, 2, 2, 2], [2, 2, 2, 2, 2]]","[9, 9, 6, 4, 2]",12,2,1,0.049,0.049,0,"[]","supersize","control",-1,"False",5,5,5,2,6075,"False","implicit-mouselab",5,268783,"supersize",27
"253","mouselab","False","[]","[[3, 5, 6, 5, 3, 2], [7, 7, 5, 6, 5, 6]]","[[2, 2, 2, 2, 2, 2], [2, 2, 2, 2, 2, 2]]","[16, 14]",2,3,3,0.055,0.055,0,"[]","supersize","post-supersize",5,"False",5,6,2,2,35087,"False","implicit-mouselab",7,314390,"supersize",27
"254","mouselab","False","[]","[[4, 3, 5, 2, 2], [6, 6, 7, 6, 6]]","[[2, 2, 2, 2, 2], [2, 2, 2, 2, 2]]","[26, 4]",22,4,1,0.034,0.034,0,"[]","supersize","control",-1,"False",5,5,2,2,5588,"False","implicit-mouselab",8,325639,"supersize",27
"255","mouselab","False","[]","[[8, 8, 5, 6, 5], [5, 5, 4, 4, 3], [8, 2, 4, 7, 6], [2, 7, 4, 4, 4], [6, 5, 6, 6, 7]]","[[2, 2, 2, 2, 2], [2, 2, 2, 2, 2], [2, 2, 2, 2, 2], [2, 2, 2, 2, 2], [2, 2, 2, 2, 2]]","[1, 11, 6, 10, 2]",18,5,3,0.048,0.048,0,"[]","supersize","control",-1,"False",5,5,5,2,3300,"False","implicit-mouselab",9,332871,"supersize",27
"256","mouselab","False","[]","[[8, 4, 3, 8, 7, 2], [5, 0, 7, 2, 5, 4], [5, 8, 5, 6, 4, 4], [3, 4, 3, 2, 5, 4], [4, 6, 4, 5, 3, 5]]","[[2, 2, 2, 2, 2, 2], [2, 2, 2, 2, 2, 2], [2, 2, 2, 2, 2, 2], [2, 2, 2, 2, 2, 2], [2, 2, 2, 2, 2, 2]]","[9, 12, 3, 3, 3]",18,6,3,0.045,0.045,0,"[]","supersize","post-supersize",5,"False",5,6,5,2,23213,"False","implicit-mouselab",10,357961,"supersize",27
"257","mouselab","False","[]","[[7, 5, 5, 4, 6], [7, 6, 5, 5, 5], [8, 4, 9, 5, 2], [5, 4, 6, 7, 4], [6, 5, 1, 5, 7]]","[[2, 2, 2, 2, 2], [2, 2, 2, 2, 2], [2, 2, 2, 2, 2], [2, 2, 2, 2, 2], [2, 2, 2, 2, 2]]","[5, 14, 7, 2, 2]",18,7,3,0.05,0.05,0,"[]","supersize","control",-1,"False",5,5,5,2,7548,"False","implicit-mouselab",11,368341,"supersize",27
"258","mouselab","False","[]","[[3, 4, 6, 5, 5], [6, 7, 2, 2, 6]]","[[2, 2, 2, 2, 2], [2, 2, 2, 2, 2]]","[10, 20]",10,8,1,0.06,0.06,0,"[]","supersize","control",-1,"False",5,5,2,2,4850,"False","implicit-mouselab",12,374760,"supersize",27
"259","mouselab","False","[]","[[6, 3, 4, 5, 8, 9], [5, 7, 5, 4, 5, 5]]","[[2, 2, 2, 2, 2, 2], [2, 2, 2, 2, 2, 2]]","[25, 5]",20,9,0,0.058,0.058,0,"[]","supersize","pre-supersize",0,"True",5,6,2,2,17091,"False","implicit-mouselab",13,393713,"supersize",27
"260","mouselab","False","[]","[[4, 3, 3, 2, 3, 4], [6, 6, 4, 6, 6, 5], [5, 6, 2, 4, 5, 4], [8, 1, 7, 5, 7, 6], [8, 4, 5, 5, 5, 5]]","[[2, 2, 2, 2, 2, 2], [2, 2, 2, 2, 2, 2], [2, 2, 2, 2, 2, 2], [2, 2, 2, 2, 2, 2], [2, 2, 2, 2, 2, 2]]","[7, 3, 14, 5, 1]",18,10,3,0.039,0.039,0,"[]","supersize","pre-supersize",0,"False",5,6,5,2,4681,"False","implicit-mouselab",14,402859,"supersize",27
"261","mouselab","True","[]","[[2, 7, 5, 3, 6], [6, 4, 4, 6, 3]]","[[2, 2, 2, 2, 2], [2, 2, 2, 2, 2]]","[1, 29]",28,1,3,0.059,0.059,0,"[]","supersize","control",-1,"False",5,5,2,2,3613,"False","implicit-mouselab",4,169108,"supersize",28
"262","mouselab","True","[]","[[7, 4, 5, 6, 4], [6, 5, 7, 5, 5], [9, 7, 3, 5, 5], [7, 4, 5, 5, 2], [4, 7, 5, 5, 2]]","[[2, 2, 2, 2, 2], [2, 2, 2, 2, 2], [2, 2, 2, 2, 2], [2, 2, 2, 2, 2], [2, 2, 2, 2, 2]]","[1, 5, 16, 6, 2]",20,2,1,0.06,0.06,0,"[]","supersize","control",-1,"False",5,5,5,2,2543,"False","implicit-mouselab",5,174567,"supersize",28
"263","mouselab","False","[]","[[7, 4, 3, 5, 6, 6], [2, 7, 8, 1, 5, 5], [6, 1, 7, 6, 5, 3], [6, 4, 3, 3, 8, 1], [6, 4, 4, 5, 6, 4]]","[[2, 2, 2, 2, 2, 2], [2, 2, 2, 2, 2, 2], [2, 2, 2, 2, 2, 2], [2, 2, 2, 2, 2, 2], [2, 2, 2, 2, 2, 2]]","[5, 9, 2, 3, 11]",16,3,3,0.037,0.037,0,"[]","supersize","pre-supersize",5,"False",5,6,5,2,2716,"False","implicit-mouselab",7,185594,"supersize",28
"264","mouselab","False","[]","[[9, 6, 6, 6, 5, 7], [3, 3, 4, 6, 7, 6]]","[[2, 2, 2, 2, 2, 2], [2, 2, 2, 2, 2, 2]]","[5, 25]",20,4,5,0.062,0.062,0,"[]","supersize","post-supersize",5,"True",5,6,2,2,7773,"False","implicit-mouselab",8,194968,"supersize",28
"265","mouselab","False","[]","[[5, 1, 5, 3, 4], [3, 3, 7, 6, 4]]","[[2, 2, 2, 2, 2], [2, 2, 2, 2, 2]]","[27, 3]",24,5,3,0.033,0.033,0,"[]","supersize","control",-1,"False",5,5,2,2,4164,"False","implicit-mouselab",9,200573,"supersize",28
"266","mouselab","False","[]","[[3, 4, 8, 6, 5], [4, 3, 6, 6, 5]]","[[2, 2, 2, 2, 2], [2, 2, 2, 2, 2]]","[23, 7]",16,6,4,0.05,0.05,0,"[]","supersize","control",-1,"False",5,5,2,2,1601,"False","implicit-mouselab",10,203409,"supersize",28
"267","mouselab","False","[]","[[4, 3, 5, 4, 5], [4, 5, 8, 6, 3], [6, 5, 3, 5, 4], [5, 7, 6, 6, 5], [6, 6, 3, 10, 7]]","[[2, 2, 2, 2, 2], [2, 2, 2, 2, 2], [2, 2, 2, 2, 2], [2, 2, 2, 2, 2], [2, 2, 2, 2, 2]]","[10, 6, 5, 1, 8]",12,7,1,0.047,0.047,0,"[]","supersize","control",-1,"False",5,5,5,2,1726,"False","implicit-mouselab",11,206591,"supersize",28
"268","mouselab","False","[]","[[6, 3, 5, 3, 7, 6], [5, 6, 5, 4, 6, 5]]","[[2, 2, 2, 2, 2, 2], [2, 2, 2, 2, 2, 2]]","[6, 24]",18,8,4,0.062,0.062,0,"[]","supersize","pre-supersize",4,"True",5,6,2,2,2247,"False","implicit-mouselab",12,209925,"supersize",28
"269","mouselab","False","[]","[[7, 4, 4, 5, 5], [4, 4, 7, 7, 6], [6, 6, 4, 4, 8], [10, 8, 3, 8, 3], [3, 6, 4, 7, 6]]","[[2, 2, 2, 2, 2], [2, 2, 2, 2, 2], [2, 2, 2, 2, 2], [2, 2, 2, 2, 2], [2, 2, 2, 2, 2]]","[3, 1, 10, 14, 2]",24,9,2,0.036,0.036,0,"[]","supersize","control",-1,"False",5,5,5,2,1528,"False","implicit-mouselab",13,212886,"supersize",28
"270","mouselab","False","[]","[[3, 2, 4, 7, 6, 7], [5, 7, 3, 6, 4, 3], [6, 9, 3, 5, 8, 4], [3, 3, 5, 8, 8, 3], [5, 6, 5, 4, 5, 4]]","[[2, 2, 2, 2, 2, 2], [2, 2, 2, 2, 2, 2], [2, 2, 2, 2, 2, 2], [2, 2, 2, 2, 2, 2], [2, 2, 2, 2, 2, 2]]","[2, 16, 3, 4, 5]",20,10,5,0.035,0.035,0,"[]","supersize","post-supersize",5,"True",5,6,5,2,3768,"False","implicit-mouselab",14,218844,"supersize",28
"271","mouselab","True","[2, 2, 6, 6, 8, 8, 10, 10, 7, 7, 3, 3, 4, 4, 9, 9, 1, 1, 0, 0]","[[3, 2, 4, 4, 6], [6, 3, 9, 5, 6]]","[[0, 0, 0, 0, 0], [0, 0, 0, 0, 0]]","[6, 24]",18,1,2,0.08,0.0733333333333333,0.00666666666666667,"[2, 6, 8, 10, 7, 3, 4, 9, 1, 0]","supersize","control",-1,"False",5,5,2,2,55328,"False","implicit-mouselab",4,552861,"supersize",29
"272","mouselab","True","[24, 24, 14, 14, 22, 22]","[[6, 7, 5, 3, 3], [6, 8, 3, 2, 6], [5, 5, 5, 7, 4], [7, 5, 6, 6, 5], [6, 3, 4, 4, 5]]","[[2, 2, 2, 2, 2], [2, 2, 2, 2, 2], [2, 2, 0, 2, 2], [2, 2, 2, 2, 0], [0, 2, 2, 2, 2]]","[3, 2, 1, 17, 7]",24,2,4,0.048,0.046,0.002,"[24, 14, 22]","supersize","control",-1,"False",5,5,5,2,19106,"False","implicit-mouselab",5,582515,"supersize",29
"273","mouselab","False","[6, 6, 9, 9]","[[3, 3, 6, 3, 7], [5, 7, 4, 6, 6]]","[[2, 2, 2, 2, 2], [0, 2, 2, 0, 2]]","[3, 27]",24,3,3,0.057,0.0556666666666667,0.00133333333333333,"[6, 9]","supersize","control",-1,"False",5,5,2,2,13392,"False","implicit-mouselab",7,608927,"supersize",29
"274","mouselab","False","[]","[[5, 3, 3, 3, 7, 7], [4, 4, 9, 4, 4, 4], [5, 5, 4, 5, 7, 5], [3, 3, 7, 3, 2, 7], [6, 8, 2, 8, 5, 6]]","[[2, 2, 2, 2, 2, 2], [2, 2, 2, 2, 2, 2], [2, 2, 2, 2, 2, 2], [2, 2, 2, 2, 2, 2], [2, 2, 2, 2, 2, 2]]","[7, 2, 7, 5, 9]",10,4,3,0.05,0.05,0,"[]","supersize","pre-supersize",3,"True",5,6,5,2,11615,"False","implicit-mouselab",8,630532,"supersize",29
"275","mouselab","False","[26, 26, 14, 14]","[[9, 8, 6, 5, 3], [6, 5, 4, 6, 8], [4, 7, 6, 7, 8], [7, 3, 4, 3, 3], [4, 2, 2, 9, 4]]","[[2, 2, 2, 2, 2], [2, 2, 2, 2, 2], [2, 2, 0, 2, 2], [2, 2, 2, 2, 2], [2, 2, 0, 2, 2]]","[1, 9, 16, 3, 1]",26,5,2,0.051,0.0496666666666667,0.00133333333333333,"[26, 14]","supersize","control",-1,"False",5,5,5,2,16155,"False","implicit-mouselab",9,652054,"supersize",29
"276","mouselab","False","[1, 1]","[[4, 3, 6, 5, 4, 5], [6, 6, 2, 2, 7, 5]]","[[2, 0, 2, 2, 2, 2], [2, 2, 2, 2, 2, 2]]","[17, 13]",4,6,5,0.05,0.0493333333333333,0.000666666666666667,"[1]","supersize","post-supersize",5,"True",5,6,2,2,12224,"False","implicit-mouselab",10,667286,"supersize",29
"277","mouselab","False","[4, 4, 28, 28]","[[7, 7, 3, 6, 8], [4, 5, 5, 4, 3], [3, 3, 2, 8, 5], [4, 6, 4, 7, 9], [6, 5, 5, 6, 4]]","[[2, 2, 2, 2, 0], [2, 2, 2, 2, 2], [2, 2, 2, 2, 2], [2, 2, 2, 2, 2], [2, 2, 2, 2, 0]]","[1, 4, 13, 3, 9]",20,7,4,0.049,0.0476666666666667,0.00133333333333333,"[4, 28]","supersize","control",-1,"False",5,5,5,2,12701,"False","implicit-mouselab",11,682903,"supersize",29
"278","mouselab","False","[]","[[6, 5, 6, 4, 6, 4], [2, 5, 4, 5, 6, 3]]","[[2, 2, 2, 2, 2, 2], [2, 2, 2, 2, 2, 2]]","[10, 20]",10,8,0,0.033,0.033,0,"[]","supersize","pre-supersize",0,"True",5,6,2,2,10291,"False","implicit-mouselab",12,697736,"supersize",29
"279","mouselab","False","[24, 24, 26, 26]","[[8, 7, 6, 3, 6, 5], [4, 7, 5, 4, 5, 5], [7, 7, 4, 6, 5, 3], [5, 6, 7, 7, 4, 4], [4, 5, 6, 5, 5, 4]]","[[2, 2, 2, 2, 2, 2], [2, 2, 2, 2, 2, 2], [2, 2, 2, 2, 2, 2], [2, 2, 2, 2, 2, 2], [0, 2, 0, 2, 2, 2]]","[4, 5, 6, 2, 13]",14,9,5,0.041,0.0396666666666667,0.00133333333333333,"[24, 26]","supersize","post-supersize",5,"True",5,6,5,2,16653,"False","implicit-mouselab",13,718165,"supersize",29
"280","mouselab","False","[7, 7, 3, 3]","[[5, 2, 3, 5, 5], [4, 4, 4, 5, 3]]","[[2, 2, 2, 0, 2], [2, 0, 2, 2, 2]]","[15, 15]",0,10,3,0.05,0.0486666666666667,0.00133333333333333,"[7, 3]","supersize","control",-1,"False",5,5,2,2,12125,"False","implicit-mouselab",14,732652,"supersize",29
"281","mouselab","True","[8, 8, 8, 19, 16, 4, 24, 6, 28, 15, 9, 0, 1, 1, 12, 12, 26, 26, 3, 3, 27, 27, 21, 21, 20, 20, 14, 14, 13, 13, 25, 25, 18, 18, 7, 7, 2, 2, 22, 22, 10, 10, 4, 4, 9, 9, 15, 15, 16, 16, 28, 28, 19, 19, 24, 24, 6, 6, 0, 0]","[[6, 8, 5, 3, 3], [2, 4, 7, 3, 2], [4, 7, 6, 4, 6], [4, 4, 3, 9, 2], [5, 7, 5, 7, 4]]","[[0, 0, 0, 0, 0], [0, 0, 0, 0, 0], [0, 0, 0, 0, 0], [0, 0, 0, 0, 0], [0, 0, 0, 0, 0]]","[2, 7, 3, 16, 2]",22,1,0,0.037,0.0203333333333333,0.0166666666666667,"[8, 1, 12, 26, 3, 27, 21, 20, 14, 13, 25, 18, 7, 2, 22, 10, 4, 9, 15, 16, 28, 19, 24, 6, 0]","supersize","control",-1,"False",5,5,5,2,50067,"True","implicit-mouselab",4,123912,"supersize",30
"282","mouselab","True","[]","[[6, 2, 6, 7, 6], [8, 4, 6, 6, 6]]","[[2, 2, 2, 2, 2], [2, 2, 2, 2, 2]]","[15, 15]",0,2,2,0.06,0.06,0,"[]","supersize","control",-1,"False",5,5,2,2,2096,"True","implicit-mouselab",5,127146,"supersize",30
